participant	trial	block	num_tri_i	cond	stim_cond	corr_resp	resp	rt	acc	bl_cond_i	block_cond	t2t	t2t_i
sub-001	0	0	1	0	[6, 2, 4]	2	2	1.09683154823642	1	0	pure_pref	pure_pref	4
sub-001	1	0	2	0	[3, 1, 5]	2	2	1.40821740494766	1	0	pure_pref	pure_pref	4
sub-001	2	0	3	0	[4, 6, 2]	2	1	1.31604745757886	0	0	pure_pref	pure_pref	4
sub-001	3	0	4	0	[5, 3, 1]	2	1	1.2044159719153	0	0	pure_pref	pure_pref	4
sub-001	4	0	5	0	[6, 2, 4]	2	2	0.778722772988658	1	0	pure_pref	pure_pref	4
sub-001	5	0	6	0	[3, 1, 5]	2	2	0.752636903619987	1	0	pure_pref	pure_pref	4
sub-001	6	0	7	0	[6, 2, 4]	2	2	0.784967682283423	1	0	pure_pref	pure_pref	4
sub-001	7	0	8	0	[2, 6, 4]	2	2	0.936658954867198	1	0	pure_pref	pure_pref	4
sub-001	8	0	9	0	[3, 5, 1]	2	1	0.733076466861803	0	0	pure_pref	pure_pref	4
sub-001	9	0	10	0	[4, 2, 6]	2	2	0.86102153405227	1	0	pure_pref	pure_pref	4
sub-001	10	0	11	0	[1, 3, 5]	2	2	0.912934519575629	1	0	pure_pref	pure_pref	4
sub-001	11	0	12	0	[3, 1, 5]	2	2	0.597386841341631	1	0	pure_pref	pure_pref	4
sub-001	12	0	13	0	[6, 2, 4]	2	2	0.580757593334056	1	0	pure_pref	pure_pref	4
sub-001	13	0	14	0	[2, 6, 4]	2	2	0.784768952351442	1	0	pure_pref	pure_pref	4
sub-001	14	0	15	0	[5, 1, 3]	2	2	1.10473689432047	1	0	pure_pref	pure_pref	4
sub-001	15	0	16	0	[6, 4, 2]	2	1	0.73292811916599	0	0	pure_pref	pure_pref	4
sub-001	16	0	17	0	[3, 5, 1]	2	1	0.661041997947905	0	0	pure_pref	pure_pref	4
sub-001	17	0	18	0	[4, 2, 6]	2	2	0.836988274311807	1	0	pure_pref	pure_pref	4
sub-001	18	0	19	0	[6, 2, 4]	2	2	0.681244341717047	1	0	pure_pref	pure_pref	4
sub-001	19	0	20	0	[1, 5, 3]	2	1	0.632912226991266	0	0	pure_pref	pure_pref	4
sub-001	0	1	21	0	[3, 5, 1]	2	1	0.833154248326537	0	0	pure_pref	pure_pref	4
sub-001	1	1	22	0	[6, 4, 2]	2	1	0.79293025263587	0	0	pure_pref	pure_pref	4
sub-001	2	1	23	0	[2, 4, 6]	2	1	0.72099406018333	0	0	pure_pref	pure_pref	4
sub-001	3	1	24	0	[5, 3, 1]	2	1	0.685212409331598	0	0	pure_pref	pure_pref	4
sub-001	4	1	25	0	[4, 6, 2]	2	1	0.976989935059919	0	0	pure_pref	pure_pref	4
sub-001	5	1	26	0	[3, 1, 5]	2	2	0.589083413390199	1	0	pure_pref	pure_pref	4
sub-001	6	1	27	0	[4, 6, 2]	2	1	0.717235296550825	0	0	pure_pref	pure_pref	4
sub-001	7	1	28	0	[6, 4, 2]	2	1	0.681076400929214	0	0	pure_pref	pure_pref	4
sub-001	8	1	29	0	[1, 3, 5]	2	2	0.793085753365176	1	0	pure_pref	pure_pref	4
sub-001	9	1	30	0	[6, 4, 2]	2	1	0.569357212854811	0	0	pure_pref	pure_pref	4
sub-001	10	1	31	0	[2, 4, 6]	2	1	0.953337341105453	0	0	pure_pref	pure_pref	4
sub-001	11	1	32	0	[5, 3, 1]	2	1	0.7772050858689	0	0	pure_pref	pure_pref	4
sub-001	12	1	33	0	[2, 4, 6]	2	1	0.64936638117797	0	0	pure_pref	pure_pref	4
sub-001	13	1	34	0	[4, 2, 6]	2	2	1.09358904702594	1	0	pure_pref	pure_pref	4
sub-001	14	1	35	0	[1, 3, 5]	2	2	0.793401419846305	1	0	pure_pref	pure_pref	4
sub-001	15	1	36	0	[4, 2, 6]	2	2	0.753257040528752	1	0	pure_pref	pure_pref	4
sub-001	16	1	37	0	[6, 2, 4]	2	2	0.621300676521514	1	0	pure_pref	pure_pref	4
sub-001	17	1	38	0	[2, 6, 4]	2	2	1.00531501493288	1	0	pure_pref	pure_pref	4
sub-001	18	1	39	0	[5, 1, 3]	2	2	0.789560551828799	1	0	pure_pref	pure_pref	4
sub-001	19	1	40	0	[1, 5, 3]	2	1	0.741294680413375	0	0	pure_pref	pure_pref	4
sub-001	0	2	41	0	[4, 6, 2]	2	1	0.993360118852252	0	0	pure_pref	pure_pref	4
sub-001	1	2	42	0	[5, 3, 1]	2	1	0.645433767730083	0	0	pure_pref	pure_pref	4
sub-001	2	2	43	0	[2, 4, 6]	2	1	0.754124423597659	0	0	pure_pref	pure_pref	4
sub-001	3	2	44	0	[3, 1, 5]	2	2	0.673502271399229	1	0	pure_pref	pure_pref	4
sub-001	4	2	45	0	[6, 2, 4]	2	2	0.73759594006242	1	0	pure_pref	pure_pref	4
sub-001	5	2	46	0	[2, 6, 4]	2	2	0.758160600531483	1	0	pure_pref	pure_pref	4
sub-001	6	2	47	0	[6, 2, 4]	2	2	0.577744611199705	1	0	pure_pref	pure_pref	4
sub-001	7	2	48	0	[2, 6, 4]	2	2	0.729546600302911	1	0	pure_pref	pure_pref	4
sub-001	8	2	49	0	[4, 6, 2]	2	1	0.774104712325425	0	0	pure_pref	pure_pref	4
sub-001	9	2	50	0	[6, 4, 2]	2	1	0.477593744392379	0	0	pure_pref	pure_pref	4
sub-001	10	2	51	0	[5, 1, 3]	2	2	0.569870054260264	1	0	pure_pref	pure_pref	4
sub-001	11	2	52	0	[6, 4, 2]	2	1	0.465715976673891	0	0	pure_pref	pure_pref	4
sub-001	12	2	53	0	[2, 4, 6]	2	1	0.701654745462292	0	0	pure_pref	pure_pref	4
sub-001	13	2	54	0	[5, 3, 1]	2	1	0.705623746081074	0	0	pure_pref	pure_pref	4
sub-001	14	2	55	0	[4, 6, 2]	2	1	0.830278728837584	0	0	pure_pref	pure_pref	4
sub-001	15	2	56	0	[1, 5, 3]	2	1	0.981672995028021	0	0	pure_pref	pure_pref	4
sub-001	16	2	57	0	[3, 5, 1]	2	1	0.62165801719766	0	0	pure_pref	pure_pref	4
sub-001	17	2	58	0	[1, 5, 3]	2	1	0.678339588091149	0	0	pure_pref	pure_pref	4
sub-001	18	2	59	0	[5, 1, 3]	2	2	0.649766018052105	1	0	pure_pref	pure_pref	4
sub-001	19	2	60	0	[2, 6, 4]	2	2	0.817761542119115	1	0	pure_pref	pure_pref	4
sub-001	0	3	61	0	[3, 5, 1]	2	1	0.901808442383299	0	0	pure_pref	pure_pref	4
sub-001	1	3	62	0	[6, 4, 2]	2	1	0.805842100205155	0	0	pure_pref	pure_pref	4
sub-001	2	3	63	0	[4, 6, 2]	2	1	0.930130101240593	0	0	pure_pref	pure_pref	4
sub-001	3	3	64	0	[5, 3, 1]	2	1	0.758522295228431	0	0	pure_pref	pure_pref	4
sub-001	4	3	65	0	[6, 2, 4]	2	2	0.785942671856901	1	0	pure_pref	pure_pref	4
sub-001	5	3	66	0	[4, 2, 6]	2	1	1.06225720504835	0	0	pure_pref	pure_pref	4
sub-001	6	3	67	0	[2, 4, 6]	2	1	1.10617683107557	0	0	pure_pref	pure_pref	4
sub-001	7	3	68	0	[6, 4, 2]	2	1	0.757989238727532	0	0	pure_pref	pure_pref	4
sub-001	8	3	69	0	[4, 6, 2]	2	1	0.862000566644838	0	0	pure_pref	pure_pref	4
sub-001	9	3	70	0	[5, 3, 1]	2	1	0.742073117065047	0	0	pure_pref	pure_pref	4
sub-001	10	3	71	0	[4, 6, 2]	2	1	1.11401531184583	0	0	pure_pref	pure_pref	4
sub-001	11	3	72	0	[6, 4, 2]	2	1	0.910104406299979	0	0	pure_pref	pure_pref	4
sub-001	12	3	73	0	[2, 4, 6]	2	1	0.794271601927903	0	0	pure_pref	pure_pref	4
sub-001	13	3	74	0	[5, 3, 1]	2	1	0.786737280584475	0	0	pure_pref	pure_pref	4
sub-001	14	3	75	0	[2, 4, 6]	2	1	0.74658450422794	0	0	pure_pref	pure_pref	4
sub-001	15	3	76	0	[5, 3, 1]	2	1	0.698199519254104	0	0	pure_pref	pure_pref	4
sub-001	16	3	77	0	[6, 2, 4]	2	2	0.670167402755396	1	0	pure_pref	pure_pref	4
sub-001	17	3	78	0	[4, 2, 6]	2	2	0.954160250965742	1	0	pure_pref	pure_pref	4
sub-001	18	3	79	0	[3, 5, 1]	2	1	0.634432402122457	0	0	pure_pref	pure_pref	4
sub-001	19	3	80	0	[6, 4, 2]	2	1	0.65043809220515	0	0	pure_pref	pure_pref	4
sub-001	0	4	81	0	[5, 1, 3]	2	2	1.27422926840973	1	2	mix	1st	6
sub-001	1	4	82	0	[6, 4, 2]	2	1	0.802316276665351	0	2	mix	stay_pref	0
sub-001	2	4	83	0	[5, 1, 3]	2	2	0.83431241775952	1	2	mix	stay_pref	0
sub-001	3	4	84	0	[6, 4, 2]	2	1	0.723093009029526	0	2	mix	stay_pref	0
sub-001	4	4	85	0	[2, 4, 6]	2	1	0.878627015639268	0	2	mix	stay_pref	0
sub-001	5	4	86	0	[4, 2, 6]	2	2	0.84241058474845	1	2	mix	stay_pref	0
sub-001	6	4	87	0	[2, 4, 6]	2	1	0.642766619218492	0	2	mix	stay_pref	0
sub-001	7	4	88	0	[6, 4, 2]	2	1	0.682409042180552	0	2	mix	stay_pref	0
sub-001	8	4	89	0	[1, 3, 5]	2	2	0.634477497334046	1	2	mix	stay_pref	0
sub-001	9	4	90	0	[4, 2, 6]	2	2	0.986421365302704	1	2	mix	stay_pref	0
sub-001	10	4	91	1	[3, 1, 2]	2	2	0.910456770952806	1	2	mix	switch_pref	2
sub-001	11	4	92	1	[6, 2, 1]	2	2	1.27058992933735	1	2	mix	stay_sim	1
sub-001	12	4	93	1	[1, 2, 3]	1	1	0.738501576310682	1	2	mix	stay_sim	1
sub-001	13	4	94	1	[6, 5, 4]	1	2	1.05478290698647	0	2	mix	stay_sim	1
sub-001	14	4	95	1	[4, 2, 3]	2	2	0.974808570827008	1	2	mix	stay_sim	1
sub-001	15	4	96	1	[2, 4, 3]	2	2	0.918590703108748	1	2	mix	stay_sim	1
sub-001	16	4	97	1	[6, 1, 2]	1	1	0.987155639747016	1	2	mix	stay_sim	1
sub-001	17	4	98	1	[4, 3, 2]	1	1	0.658660970778783	1	2	mix	stay_sim	1
sub-001	18	4	99	1	[1, 5, 6]	2	2	0.698823699181958	1	2	mix	stay_sim	1
sub-001	19	4	100	1	[4, 6, 5]	2	2	1.17883392491012	1	2	mix	stay_sim	1
sub-001	0	5	101	1	[6, 1, 2]	1	1	1.17132666069301	1	1	pure_sim	pure_sim	5
sub-001	1	5	102	1	[2, 1, 6]	1	1	0.911147194191472	1	1	pure_sim	pure_sim	5
sub-001	2	5	103	1	[5, 3, 4]	2	2	1.382846527933	1	1	pure_sim	pure_sim	5
sub-001	3	5	104	1	[3, 5, 4]	2	2	1.3788066189818	1	1	pure_sim	pure_sim	5
sub-001	4	5	105	1	[4, 5, 6]	1	1	0.670833878881695	1	1	pure_sim	pure_sim	5
sub-001	5	5	106	1	[5, 4, 3]	1	1	0.978793121518265	1	1	pure_sim	pure_sim	5
sub-001	6	5	107	1	[4, 2, 3]	2	2	1.00336814579987	1	1	pure_sim	pure_sim	5
sub-001	7	5	108	1	[6, 2, 1]	2	2	0.755049341936683	1	1	pure_sim	pure_sim	5
sub-001	8	5	109	1	[1, 2, 3]	1	1	0.691278803788919	1	1	pure_sim	pure_sim	5
sub-001	9	5	110	1	[6, 5, 4]	1	2	1.02329649728381	0	1	pure_sim	pure_sim	5
sub-001	10	5	111	1	[3, 1, 2]	2	2	0.827459500612804	1	1	pure_sim	pure_sim	5
sub-001	11	5	112	1	[6, 2, 1]	2	2	0.974972157594493	1	1	pure_sim	pure_sim	5
sub-001	12	5	113	1	[1, 2, 3]	1	1	0.735218955911932	1	1	pure_sim	pure_sim	5
sub-001	13	5	114	1	[4, 3, 2]	1	1	0.647047243298402	1	1	pure_sim	pure_sim	5
sub-001	14	5	115	1	[1, 5, 6]	2	2	0.955389639732857	1	1	pure_sim	pure_sim	5
sub-001	15	5	116	1	[6, 2, 1]	2	2	0.971272795241021	1	1	pure_sim	pure_sim	5
sub-001	16	5	117	1	[3, 4, 5]	1	1	0.771397444625563	1	1	pure_sim	pure_sim	5
sub-001	17	5	118	1	[4, 3, 2]	1	1	0.599449714018647	1	1	pure_sim	pure_sim	5
sub-001	18	5	119	1	[1, 5, 6]	2	2	0.695095724694056	1	1	pure_sim	pure_sim	5
sub-001	19	5	120	1	[3, 5, 4]	2	2	0.647176619905622	1	1	pure_sim	pure_sim	5
sub-001	0	6	121	1	[4, 5, 6]	1	1	1.02330396131856	1	1	pure_sim	pure_sim	5
sub-001	1	6	122	1	[3, 2, 1]	1	1	0.943356371284608	1	1	pure_sim	pure_sim	5
sub-001	2	6	123	1	[5, 3, 4]	2	2	1.10748428120905	1	1	pure_sim	pure_sim	5
sub-001	3	6	124	1	[1, 3, 2]	2	2	0.659491033672111	1	1	pure_sim	pure_sim	5
sub-001	4	6	125	1	[6, 1, 2]	1	1	0.8113188358966	1	1	pure_sim	pure_sim	5
sub-001	5	6	126	1	[1, 6, 5]	1	1	0.791644572605037	1	1	pure_sim	pure_sim	5
sub-001	6	6	127	1	[5, 3, 4]	2	2	0.799324442631132	1	1	pure_sim	pure_sim	5
sub-001	7	6	128	1	[6, 2, 1]	2	2	0.863349690973337	1	1	pure_sim	pure_sim	5
sub-001	8	6	129	1	[2, 3, 4]	1	2	1.29532511936986	0	1	pure_sim	pure_sim	5
sub-001	9	6	130	1	[1, 6, 5]	1	1	0.819472983147534	1	1	pure_sim	pure_sim	5
sub-001	10	6	131	1	[4, 2, 3]	2	2	1.03538045896948	1	1	pure_sim	pure_sim	5
sub-001	11	6	132	1	[1, 3, 2]	2	2	0.639607155397243	1	1	pure_sim	pure_sim	5
sub-001	12	6	133	1	[4, 5, 6]	1	1	0.627644173278895	1	1	pure_sim	pure_sim	5
sub-001	13	6	134	1	[1, 6, 5]	1	1	0.743499680756941	1	1	pure_sim	pure_sim	5
sub-001	14	6	135	1	[5, 3, 4]	2	2	0.959465935854951	1	1	pure_sim	pure_sim	5
sub-001	15	6	136	1	[1, 3, 2]	2	2	0.603756462221554	1	1	pure_sim	pure_sim	5
sub-001	16	6	137	1	[5, 6, 1]	1	1	0.747530881667444	1	1	pure_sim	pure_sim	5
sub-001	17	6	138	1	[2, 1, 6]	1	1	0.651549300417628	1	1	pure_sim	pure_sim	5
sub-001	18	6	139	1	[3, 1, 2]	2	2	0.591723504775018	1	1	pure_sim	pure_sim	5
sub-001	19	6	140	1	[4, 6, 5]	2	2	0.571645250587608	1	1	pure_sim	pure_sim	5
sub-001	0	7	141	1	[1, 2, 3]	1	1	1.27162369818689	1	1	pure_sim	pure_sim	5
sub-001	1	7	142	1	[2, 1, 6]	1	1	0.975678752909062	1	1	pure_sim	pure_sim	5
sub-001	2	7	143	1	[6, 4, 5]	2	2	1.2316935988747	1	1	pure_sim	pure_sim	5
sub-001	3	7	144	1	[2, 4, 3]	2	2	0.727683390562561	1	1	pure_sim	pure_sim	5
sub-001	4	7	145	1	[6, 1, 2]	1	1	0.779656710369636	1	1	pure_sim	pure_sim	5
sub-001	5	7	146	1	[1, 6, 5]	1	1	0.663757973688917	1	1	pure_sim	pure_sim	5
sub-001	6	7	147	1	[4, 2, 3]	2	2	0.995700404830586	1	1	pure_sim	pure_sim	5
sub-001	7	7	148	1	[1, 3, 2]	2	2	0.611760395768215	1	1	pure_sim	pure_sim	5
sub-001	8	7	149	1	[3, 4, 5]	1	1	0.648348473402621	1	1	pure_sim	pure_sim	5
sub-001	9	7	150	1	[1, 6, 5]	1	1	0.728006832080155	1	1	pure_sim	pure_sim	5
sub-001	10	7	151	1	[3, 1, 2]	2	2	0.687846280686699	1	1	pure_sim	pure_sim	5
sub-001	11	7	152	1	[4, 6, 5]	2	2	0.856177997331088	1	1	pure_sim	pure_sim	5
sub-001	12	7	153	1	[1, 2, 3]	1	1	0.527913469441955	1	1	pure_sim	pure_sim	5
sub-001	13	7	154	1	[3, 2, 1]	1	1	0.864027674153931	1	1	pure_sim	pure_sim	5
sub-001	14	7	155	1	[5, 3, 4]	2	1	1.15589850031984	0	1	pure_sim	pure_sim	5
sub-001	15	7	156	1	[6, 2, 1]	2	2	0.908129547035514	1	1	pure_sim	pure_sim	5
sub-001	16	7	157	1	[4, 5, 6]	1	1	0.644037993182337	1	1	pure_sim	pure_sim	5
sub-001	17	7	158	1	[6, 5, 4]	1	1	0.711937075696824	1	1	pure_sim	pure_sim	5
sub-001	18	7	159	1	[5, 3, 4]	2	2	1.04801364923196	1	1	pure_sim	pure_sim	5
sub-001	19	7	160	1	[4, 6, 5]	2	2	0.636041834672142	1	1	pure_sim	pure_sim	5
sub-001	0	8	161	1	[2, 3, 4]	1	1	1.25206606044185	1	1	pure_sim	pure_sim	5
sub-001	1	8	162	1	[6, 5, 4]	1	1	0.908080097804032	1	1	pure_sim	pure_sim	5
sub-001	2	8	163	1	[5, 3, 4]	2	2	0.748115875411713	1	1	pure_sim	pure_sim	5
sub-001	3	8	164	1	[2, 4, 3]	2	2	0.808153152046543	1	1	pure_sim	pure_sim	5
sub-001	4	8	165	1	[3, 4, 5]	1	1	0.712198005920982	1	1	pure_sim	pure_sim	5
sub-001	5	8	166	1	[5, 4, 3]	1	1	0.788376569274533	1	1	pure_sim	pure_sim	5
sub-001	6	8	167	1	[4, 2, 3]	2	2	0.920204489679236	1	1	pure_sim	pure_sim	5
sub-001	7	8	168	1	[3, 5, 4]	2	2	0.656276833594802	1	1	pure_sim	pure_sim	5
sub-001	8	8	169	1	[2, 3, 4]	1	1	0.600473530821546	1	1	pure_sim	pure_sim	5
sub-001	9	8	170	1	[5, 4, 3]	1	1	0.732508578197667	1	1	pure_sim	pure_sim	5
sub-001	10	8	171	1	[2, 6, 1]	2	2	0.528599849661987	1	1	pure_sim	pure_sim	5
sub-001	11	8	172	1	[6, 2, 1]	2	2	0.79635282369145	1	1	pure_sim	pure_sim	5
sub-001	12	8	173	1	[2, 3, 4]	1	1	0.844477500443645	1	1	pure_sim	pure_sim	5
sub-001	13	8	174	1	[3, 2, 1]	1	1	0.820362758321608	1	1	pure_sim	pure_sim	5
sub-001	14	8	175	1	[1, 5, 6]	2	2	0.652444362616734	1	1	pure_sim	pure_sim	5
sub-001	15	8	176	1	[2, 4, 3]	2	2	0.664398014691415	1	1	pure_sim	pure_sim	5
sub-001	16	8	177	1	[4, 5, 6]	1	1	0.564399849599795	1	1	pure_sim	pure_sim	5
sub-001	17	8	178	1	[5, 4, 3]	1	1	0.768576661393126	1	1	pure_sim	pure_sim	5
sub-001	18	8	179	1	[3, 1, 2]	2	2	0.54476321748416	1	1	pure_sim	pure_sim	5
sub-001	19	8	180	1	[2, 4, 3]	2	2	0.776968413758823	1	1	pure_sim	pure_sim	5
sub-001	0	9	181	1	[5, 3, 4]	2	2	1.0684750572168	1	2	mix	1st	6
sub-001	1	9	182	0	[6, 4, 2]	2	1	0.836579307393549	0	2	mix	switch_sim	3
sub-001	2	9	183	1	[6, 5, 4]	1	1	1.42452818746187	1	2	mix	switch_pref	2
sub-001	3	9	184	0	[5, 1, 3]	2	2	1.5127086081161	1	2	mix	switch_sim	3
sub-001	4	9	185	0	[4, 6, 2]	2	1	1.10456428851103	0	2	mix	stay_pref	0
sub-001	5	9	186	0	[2, 4, 6]	2	1	0.776597078016948	0	2	mix	stay_pref	0
sub-001	6	9	187	0	[5, 3, 1]	2	1	0.740607989192085	0	2	mix	stay_pref	0
sub-001	7	9	188	0	[1, 5, 3]	2	1	0.76469194216952	0	2	mix	stay_pref	0
sub-001	8	9	189	0	[1, 5, 3]	2	1	0.700625952636074	0	2	mix	stay_pref	0
sub-001	9	9	190	0	[6, 2, 4]	2	2	0.845006202924196	1	2	mix	stay_pref	0
sub-001	10	9	191	0	[1, 3, 5]	2	1	0.708679646415931	0	2	mix	stay_pref	0
sub-001	11	9	192	0	[4, 2, 6]	2	2	0.924733914926946	1	2	mix	stay_pref	0
sub-001	12	9	193	1	[4, 2, 3]	2	2	1.36092527910068	1	2	mix	switch_pref	2
sub-001	13	9	194	1	[5, 3, 4]	2	2	1.02879749108888	1	2	mix	stay_sim	1
sub-001	14	9	195	1	[3, 1, 2]	2	2	0.848996662643458	1	2	mix	stay_sim	1
sub-001	15	9	196	1	[3, 1, 2]	2	2	0.780854065986205	1	2	mix	stay_sim	1
sub-001	16	9	197	1	[3, 2, 1]	1	1	0.940812068349715	1	2	mix	stay_sim	1
sub-001	17	9	198	0	[2, 4, 6]	2	1	1.12140657251803	0	2	mix	switch_sim	3
sub-001	18	9	199	1	[2, 4, 3]	2	2	0.885243882678878	1	2	mix	switch_pref	2
sub-001	19	9	200	1	[4, 3, 2]	1	1	0.884868814919628	1	2	mix	stay_sim	1
sub-001	0	10	201	1	[1, 2, 3]	1	1	0.884992282498843	1	2	mix	1st	6
sub-001	1	10	202	1	[2, 1, 6]	1	1	0.769014240445813	1	2	mix	stay_sim	1
sub-001	2	10	203	0	[2, 4, 6]	2	1	0.85350431778852	0	2	mix	switch_sim	3
sub-001	3	10	204	0	[3, 5, 1]	2	1	0.677074745157825	0	2	mix	stay_pref	0
sub-001	4	10	205	1	[1, 5, 6]	2	2	0.897333131389587	1	2	mix	switch_pref	2
sub-001	5	10	206	1	[6, 4, 5]	2	2	1.14529179556394	1	2	mix	stay_sim	1
sub-001	6	10	207	0	[4, 6, 2]	2	1	1.10926352055503	0	2	mix	switch_sim	3
sub-001	7	10	208	1	[2, 3, 4]	1	2	1.32910485383081	0	2	mix	switch_pref	2
sub-001	8	10	209	1	[2, 4, 3]	2	2	1.24517582312001	1	2	mix	stay_sim	1
sub-001	9	10	210	1	[5, 3, 4]	2	2	0.949808407551245	1	2	mix	stay_sim	1
sub-001	10	10	211	1	[1, 6, 5]	1	1	0.669251814460495	1	2	mix	stay_sim	1
sub-001	11	10	212	1	[6, 1, 2]	1	1	0.993350477807326	1	2	mix	stay_sim	1
sub-001	12	10	213	0	[1, 5, 3]	2	1	1.0378152893918	0	2	mix	switch_sim	3
sub-001	13	10	214	0	[4, 6, 2]	2	1	0.909906298370515	0	2	mix	stay_pref	0
sub-001	14	10	215	0	[3, 1, 5]	2	2	0.973463489517144	1	2	mix	stay_pref	0
sub-001	15	10	216	0	[5, 1, 3]	2	2	0.985317621124977	1	2	mix	stay_pref	0
sub-001	16	10	217	1	[1, 3, 2]	2	2	1.18158442181266	1	2	mix	switch_pref	2
sub-001	17	10	218	0	[4, 6, 2]	2	1	0.953411981455702	0	2	mix	switch_sim	3
sub-001	18	10	219	0	[4, 2, 6]	2	2	0.845628827844848	1	2	mix	stay_pref	0
sub-001	19	10	220	1	[4, 2, 3]	2	2	0.773515053559095	1	2	mix	switch_pref	2
sub-001	0	11	221	0	[5, 1, 3]	2	2	0.605502735413211	1	2	mix	1st	6
sub-001	1	11	222	0	[4, 2, 6]	2	2	0.645666085819357	1	2	mix	stay_pref	0
sub-001	2	11	223	0	[4, 6, 2]	2	1	0.861745545448684	0	2	mix	stay_pref	0
sub-001	3	11	224	0	[6, 4, 2]	2	1	0.721540800747789	0	2	mix	stay_pref	0
sub-001	4	11	225	1	[3, 1, 2]	2	2	0.741479415280082	1	2	mix	switch_pref	2
sub-001	5	11	226	0	[6, 2, 4]	2	2	0.717852634446899	1	2	mix	switch_sim	3
sub-001	6	11	227	0	[6, 2, 4]	2	2	0.621583687849125	1	2	mix	stay_pref	0
sub-001	7	11	228	0	[2, 6, 4]	2	1	0.869600198294393	0	2	mix	stay_pref	0
sub-001	8	11	229	0	[1, 3, 5]	2	2	0.865819975561408	1	2	mix	stay_pref	0
sub-001	9	11	230	1	[6, 2, 1]	2	2	0.981602397696861	1	2	mix	switch_pref	2
sub-001	10	11	231	1	[1, 2, 3]	1	1	1.15761025234951	1	2	mix	stay_sim	1
sub-001	11	11	232	1	[5, 3, 4]	2	2	0.862238171759145	1	2	mix	stay_sim	1
sub-001	12	11	233	1	[3, 1, 2]	2	2	1.0058004882103	1	2	mix	stay_sim	1
sub-001	13	11	234	0	[1, 3, 5]	2	2	0.729689038971628	1	2	mix	switch_sim	3
sub-001	14	11	235	1	[2, 3, 4]	1	2	1.24579409401986	0	2	mix	switch_pref	2
sub-001	15	11	236	0	[4, 6, 2]	2	1	1.02593316765251	0	2	mix	switch_sim	3
sub-001	16	11	237	0	[3, 1, 5]	2	2	0.729818415578393	1	2	mix	stay_pref	0
sub-001	17	11	238	0	[4, 6, 2]	2	1	0.845812007704353	0	2	mix	stay_pref	0
sub-001	18	11	239	0	[2, 4, 6]	2	1	0.841763390712458	0	2	mix	stay_pref	0
sub-001	19	11	240	1	[4, 3, 2]	1	1	0.857804845962619	1	2	mix	switch_pref	2
sub-001	0	12	241	1	[3, 5, 4]	2	2	0.789912605479913	1	2	mix	1st	6
sub-001	1	12	242	1	[4, 5, 6]	1	1	0.741982926641867	1	2	mix	stay_sim	1
sub-001	2	12	243	1	[2, 6, 1]	2	2	0.658265687924086	1	2	mix	stay_sim	1
sub-001	3	12	244	0	[4, 2, 6]	2	2	0.75045678339302	1	2	mix	switch_sim	3
sub-001	4	12	245	0	[1, 3, 5]	2	2	1.15012102621768	1	2	mix	stay_pref	0
sub-001	5	12	246	0	[6, 4, 2]	2	1	0.609979290412866	0	2	mix	stay_pref	0
sub-001	6	12	247	0	[5, 1, 3]	2	2	0.766109175818201	1	2	mix	stay_pref	0
sub-001	7	12	248	1	[1, 6, 5]	1	1	0.986298830727719	1	2	mix	switch_pref	2
sub-001	8	12	249	1	[2, 4, 3]	2	2	0.74604958171858	1	2	mix	stay_sim	1
sub-001	9	12	250	0	[4, 2, 6]	2	2	0.950092973886058	1	2	mix	switch_sim	3
sub-001	10	12	251	0	[4, 2, 6]	2	2	0.774090095256724	1	2	mix	stay_pref	0
sub-001	11	12	252	0	[5, 3, 1]	2	1	0.722156272634948	0	2	mix	stay_pref	0
sub-001	12	12	253	1	[4, 6, 5]	2	2	0.638429703873499	1	2	mix	switch_pref	2
sub-001	13	12	254	0	[3, 5, 1]	2	1	0.706123525425483	0	2	mix	switch_sim	3
sub-001	14	12	255	0	[3, 1, 5]	2	2	0.686770215639172	1	2	mix	stay_pref	0
sub-001	15	12	256	0	[6, 2, 4]	2	2	0.726391179501206	1	2	mix	stay_pref	0
sub-001	16	12	257	1	[4, 6, 5]	2	2	1.0141937955832	1	2	mix	switch_pref	2
sub-001	17	12	258	0	[5, 1, 3]	2	2	1.03052945821355	1	2	mix	switch_sim	3
sub-001	18	12	259	0	[3, 1, 5]	2	2	1.00222708144702	1	2	mix	stay_pref	0
sub-001	19	12	260	0	[6, 4, 2]	2	1	0.738487270243695	0	2	mix	stay_pref	0
sub-001	0	13	261	1	[5, 4, 3]	1	2	1.05033029909919	0	2	mix	1st	6
sub-001	1	13	262	1	[6, 5, 4]	1	2	1.07032053987359	0	2	mix	stay_sim	1
sub-001	2	13	263	0	[6, 2, 4]	2	2	1.29462318907736	1	2	mix	switch_sim	3
sub-001	3	13	264	1	[1, 6, 5]	1	1	1.28231903835831	1	2	mix	switch_pref	2
sub-001	4	13	265	0	[3, 1, 5]	2	2	0.902942042700943	1	2	mix	switch_sim	3
sub-001	5	13	266	0	[2, 4, 6]	2	1	1.2823831046594	0	2	mix	stay_pref	0
sub-001	6	13	267	1	[5, 1, 6]	2	2	1.0064333761793	1	2	mix	switch_pref	2
sub-001	7	13	268	0	[6, 2, 4]	2	2	0.666821960061952	1	2	mix	switch_sim	3
sub-001	8	13	269	1	[1, 5, 6]	2	2	0.738609493816966	1	2	mix	switch_pref	2
sub-001	9	13	270	1	[3, 5, 4]	2	2	0.766485798585109	1	2	mix	stay_sim	1
sub-001	10	13	271	0	[6, 4, 2]	2	1	0.63876931746654	0	2	mix	switch_sim	3
sub-001	11	13	272	1	[4, 5, 6]	1	1	1.40650347590781	1	2	mix	switch_pref	2
sub-001	12	13	273	1	[4, 6, 5]	2	2	0.826744197257085	1	2	mix	stay_sim	1
sub-001	13	13	274	1	[2, 3, 4]	1	1	1.40654141808591	1	2	mix	stay_sim	1
sub-001	14	13	275	0	[2, 4, 6]	2	1	1.19061932519526	0	2	mix	switch_sim	3
sub-001	15	13	276	0	[3, 1, 5]	2	2	0.790607071738123	1	2	mix	stay_pref	0
sub-001	16	13	277	1	[3, 4, 5]	1	1	0.76663352427795	1	2	mix	switch_pref	2
sub-001	17	13	278	1	[1, 3, 2]	2	2	0.722770500516162	1	2	mix	stay_sim	1
sub-001	18	13	279	1	[4, 5, 6]	1	1	0.955192464808079	1	2	mix	stay_sim	1
sub-001	19	13	280	0	[2, 4, 6]	2	1	0.995175123366153	0	2	mix	switch_sim	3
sub-001	0	14	281	1	[2, 3, 4]	1	2	1.09485637797115	0	2	mix	1st	6
sub-001	1	14	282	1	[6, 5, 4]	1	1	1.43072706854036	1	2	mix	stay_sim	1
sub-001	2	14	283	0	[4, 2, 6]	2	2	1.32745623509709	1	2	mix	switch_sim	3
sub-001	3	14	284	0	[6, 4, 2]	2	1	0.682824540129786	0	2	mix	stay_pref	0
sub-001	4	14	285	1	[5, 3, 4]	2	2	1.60337237541944	1	2	mix	switch_pref	2
sub-001	5	14	286	0	[1, 5, 3]	2	1	0.722855403914764	0	2	mix	switch_sim	3
sub-001	6	14	287	0	[3, 5, 1]	2	1	0.742941433138185	0	2	mix	stay_pref	0
sub-001	7	14	288	1	[6, 5, 4]	1	1	0.978936804192472	1	2	mix	switch_pref	2
sub-001	8	14	289	0	[4, 2, 6]	2	2	0.939037494024888	1	2	mix	switch_sim	3
sub-001	9	14	290	1	[3, 4, 5]	1	1	0.823126317285642	1	2	mix	switch_pref	2
sub-001	10	14	291	0	[3, 1, 5]	2	2	0.670968542513492	1	2	mix	switch_sim	3
sub-001	11	14	292	0	[1, 3, 5]	2	2	0.79502546946469	1	2	mix	stay_pref	0
sub-001	12	14	293	1	[2, 4, 3]	2	2	1.17152383561825	1	2	mix	switch_pref	2
sub-001	13	14	294	1	[2, 6, 1]	2	2	1.28703568648461	1	2	mix	stay_sim	1
sub-001	14	14	295	0	[4, 2, 6]	2	2	1.21922368437845	1	2	mix	switch_sim	3
sub-001	15	14	296	0	[1, 3, 5]	2	2	0.839343488360555	1	2	mix	stay_pref	0
sub-001	16	14	297	0	[1, 5, 3]	2	1	0.911338771090414	0	2	mix	stay_pref	0
sub-001	17	14	298	1	[2, 1, 6]	1	2	1.30344754447242	0	2	mix	switch_pref	2
sub-001	18	14	299	1	[2, 4, 3]	2	2	1.28768599053501	1	2	mix	stay_sim	1
sub-001	19	14	300	0	[6, 2, 4]	2	2	1.28320850253112	1	2	mix	switch_sim	3
sub-001	0	15	301	1	[3, 5, 4]	2	2	0.819281095247334	1	2	mix	1st	6
sub-001	1	15	302	1	[5, 4, 3]	1	1	0.747747649684243	1	2	mix	stay_sim	1
sub-001	2	15	303	0	[5, 1, 3]	2	2	0.855278581111634	1	2	mix	switch_sim	3
sub-001	3	15	304	0	[3, 5, 1]	2	1	0.711298589701983	0	2	mix	stay_pref	0
sub-001	4	15	305	1	[6, 1, 2]	1	2	1.27531186448778	0	2	mix	switch_pref	2
sub-001	5	15	306	0	[1, 5, 3]	2	1	0.807356055307537	0	2	mix	switch_sim	3
sub-001	6	15	307	1	[1, 5, 6]	2	2	0.827329191001354	1	2	mix	switch_pref	2
sub-001	7	15	308	1	[6, 5, 4]	1	1	1.02336896062388	1	2	mix	stay_sim	1
sub-001	8	15	309	1	[5, 1, 6]	2	2	0.799602788936681	1	2	mix	stay_sim	1
sub-001	9	15	310	1	[1, 2, 3]	1	1	0.839443319828206	1	2	mix	stay_sim	1
sub-001	10	15	311	0	[2, 6, 4]	2	2	0.967775583835191	1	2	mix	switch_sim	3
sub-001	11	15	312	0	[2, 6, 4]	2	2	0.95546552408905	1	2	mix	stay_pref	0
sub-001	12	15	313	1	[5, 4, 3]	1	1	0.863485909612791	1	2	mix	switch_pref	2
sub-001	13	15	314	1	[1, 3, 2]	2	2	0.732071310146239	1	2	mix	stay_sim	1
sub-001	14	15	315	0	[5, 3, 1]	2	1	0.883451892273115	0	2	mix	switch_sim	3
sub-001	15	15	316	1	[2, 6, 1]	2	2	0.731664209236897	1	2	mix	switch_pref	2
sub-001	16	15	317	0	[1, 3, 5]	2	2	1.14752820705462	1	2	mix	switch_sim	3
sub-001	17	15	318	1	[2, 1, 6]	1	1	0.831936366613718	1	2	mix	switch_pref	2
sub-001	18	15	319	1	[5, 1, 6]	2	2	0.851792565758842	1	2	mix	stay_sim	1
sub-001	19	15	320	1	[6, 1, 2]	1	1	1.16360978149351	1	2	mix	stay_sim	1
sub-001	0	16	321	1	[6, 4, 5]	2	2	0.975810306526	1	2	mix	1st	6
sub-001	1	16	322	1	[5, 1, 6]	2	2	1.10427536815587	1	2	mix	stay_sim	1
sub-001	2	16	323	1	[1, 6, 5]	1	1	0.887627708861601	1	2	mix	stay_sim	1
sub-001	3	16	324	0	[3, 1, 5]	2	2	0.755874739808405	1	2	mix	switch_sim	3
sub-001	4	16	325	1	[3, 2, 1]	1	1	0.991839632719802	1	2	mix	switch_pref	2
sub-001	5	16	326	0	[5, 3, 1]	2	1	0.955709038231362	0	2	mix	switch_sim	3
sub-001	6	16	327	1	[6, 4, 5]	2	2	1.04773934594505	1	2	mix	switch_pref	2
sub-001	7	16	328	1	[5, 6, 1]	1	1	1.1438083186049	1	2	mix	stay_sim	1
sub-001	8	16	329	0	[6, 4, 2]	2	1	1.40024239453714	0	2	mix	switch_sim	3
sub-001	9	16	330	1	[3, 2, 1]	1	1	0.987856637035293	1	2	mix	switch_pref	2
sub-001	10	16	331	0	[4, 2, 6]	2	2	1.06383460444795	1	2	mix	switch_sim	3
sub-001	11	16	332	0	[1, 3, 5]	2	2	1.29244275784913	1	2	mix	stay_pref	0
sub-001	12	16	333	1	[2, 1, 6]	1	1	0.771902821995809	1	2	mix	switch_pref	2
sub-001	13	16	334	1	[4, 6, 5]	2	2	1.16816035484044	1	2	mix	stay_sim	1
sub-001	14	16	335	0	[2, 4, 6]	2	1	0.816292371227519	0	2	mix	switch_sim	3
sub-001	15	16	336	1	[3, 5, 4]	2	2	0.763883338376672	1	2	mix	switch_pref	2
sub-001	16	16	337	0	[4, 2, 6]	2	2	0.611977785787531	1	2	mix	switch_sim	3
sub-001	17	16	338	1	[1, 2, 3]	1	1	0.743970225964404	1	2	mix	switch_pref	2
sub-001	18	16	339	1	[3, 4, 5]	1	1	0.727957071846504	1	2	mix	stay_sim	1
sub-001	19	16	340	0	[6, 2, 4]	2	2	0.716359205441222	1	2	mix	switch_sim	3
sub-002	0	0	1	0	[5, 1, 3]	2	2	0.876645442771405	1	0	pure_pref	pure_pref	4
sub-002	1	0	2	0	[2, 6, 4]	2	1	0.830206354479742	0	0	pure_pref	pure_pref	4
sub-002	2	0	3	0	[6, 2, 4]	2	2	0.614230210831011	1	0	pure_pref	pure_pref	4
sub-002	3	0	4	0	[3, 1, 5]	2	1	0.558237881792593	0	0	pure_pref	pure_pref	4
sub-002	4	0	5	0	[2, 4, 6]	2	1	0.980836913153325	0	0	pure_pref	pure_pref	4
sub-002	5	0	6	0	[1, 5, 3]	2	1	1.50677740164974	0	0	pure_pref	pure_pref	4
sub-002	6	0	7	0	[6, 2, 4]	2	2	0.89885650980068	1	0	pure_pref	pure_pref	4
sub-002	7	0	8	0	[3, 1, 5]	2	2	1.14686723620252	1	0	pure_pref	pure_pref	4
sub-002	8	0	9	0	[1, 3, 5]	2	2	1.58696167382732	1	0	pure_pref	pure_pref	4
sub-002	9	0	10	0	[2, 6, 4]	2	1	1.43093836735352	0	0	pure_pref	pure_pref	4
sub-002	10	0	11	0	[4, 6, 2]	2	1	1.65893412755031	0	0	pure_pref	pure_pref	4
sub-002	11	0	12	0	[6, 4, 2]	2	1	1.01098454736348	0	0	pure_pref	pure_pref	4
sub-002	12	0	13	0	[3, 5, 1]	2	1	0.871023474421236	0	0	pure_pref	pure_pref	4
sub-002	13	0	14	0	[6, 4, 2]	2	1	0.919159790049889	0	0	pure_pref	pure_pref	4
sub-002	14	0	15	0	[5, 1, 3]	2	2	0.955029851542349	1	0	pure_pref	pure_pref	4
sub-002	15	0	16	0	[6, 4, 2]	2	1	1.02709125652837	0	0	pure_pref	pure_pref	4
sub-002	16	0	17	0	[3, 5, 1]	2	1	1.31510019146299	0	0	pure_pref	pure_pref	4
sub-002	17	0	18	0	[5, 3, 1]	2	1	1.17109308033832	0	0	pure_pref	pure_pref	4
sub-002	18	0	19	0	[3, 5, 1]	2	1	1.12310543149943	0	0	pure_pref	pure_pref	4
sub-002	19	0	20	0	[1, 5, 3]	2	2	1.66335805307608	1	0	pure_pref	pure_pref	4
sub-002	0	1	21	0	[4, 6, 2]	2	1	0.731328011188452	0	0	pure_pref	pure_pref	4
sub-002	1	1	22	0	[3, 1, 5]	2	2	0.71537992139929	1	0	pure_pref	pure_pref	4
sub-002	2	1	23	0	[2, 4, 6]	2	2	1.63138971723674	1	0	pure_pref	pure_pref	4
sub-002	3	1	24	0	[6, 4, 2]	2	2	1.24340174493773	1	0	pure_pref	pure_pref	4
sub-002	4	1	25	0	[3, 5, 1]	2	1	0.871358130207227	0	0	pure_pref	pure_pref	4
sub-002	5	1	26	0	[6, 4, 2]	2	1	0.847470674078068	0	0	pure_pref	pure_pref	4
sub-002	6	1	27	0	[1, 3, 5]	2	1	1.23946020892981	0	0	pure_pref	pure_pref	4
sub-002	7	1	28	0	[3, 1, 5]	2	2	0.947526221960288	1	0	pure_pref	pure_pref	4
sub-002	8	1	29	0	[2, 4, 6]	2	1	1.48358600466963	0	0	pure_pref	pure_pref	4
sub-002	9	1	30	0	[3, 1, 5]	2	2	0.839526020419726	1	0	pure_pref	pure_pref	4
sub-002	10	1	31	0	[4, 6, 2]	2	1	1.06757340966942	0	0	pure_pref	pure_pref	4
sub-002	11	1	32	0	[5, 3, 1]	2	1	1.09968450294764	0	0	pure_pref	pure_pref	4
sub-002	12	1	33	0	[6, 2, 4]	2	2	1.14758631071163	1	0	pure_pref	pure_pref	4
sub-002	13	1	34	0	[3, 1, 5]	2	2	1.06764058964109	1	0	pure_pref	pure_pref	4
sub-002	14	1	35	0	[4, 6, 2]	2	1	1.00770672459112	0	0	pure_pref	pure_pref	4
sub-002	15	1	36	0	[3, 1, 5]	2	2	0.939700688344601	1	0	pure_pref	pure_pref	4
sub-002	16	1	37	0	[4, 6, 2]	2	1	0.775721531554154	0	0	pure_pref	pure_pref	4
sub-002	17	1	38	0	[1, 5, 3]	2	2	1.33168555792508	1	0	pure_pref	pure_pref	4
sub-002	18	1	39	0	[2, 4, 6]	2	2	1.36379136388859	1	0	pure_pref	pure_pref	4
sub-002	19	1	40	0	[4, 2, 6]	2	2	0.891748184585595	1	0	pure_pref	pure_pref	4
sub-002	0	2	41	0	[2, 4, 6]	2	2	1.34381900720473	1	0	pure_pref	pure_pref	4
sub-002	1	2	42	0	[5, 3, 1]	2	1	0.819862816009845	0	0	pure_pref	pure_pref	4
sub-002	2	2	43	0	[3, 5, 1]	2	1	0.847883395475947	0	0	pure_pref	pure_pref	4
sub-002	3	2	44	0	[1, 5, 3]	2	2	1.41993267073849	1	0	pure_pref	pure_pref	4
sub-002	4	2	45	0	[2, 4, 6]	2	1	1.46390445017823	0	0	pure_pref	pure_pref	4
sub-002	5	2	46	0	[6, 4, 2]	2	1	1.45595513124499	0	0	pure_pref	pure_pref	4
sub-002	6	2	47	0	[5, 1, 3]	2	2	0.991976347675518	1	0	pure_pref	pure_pref	4
sub-002	7	2	48	0	[1, 5, 3]	2	2	1.16403887232445	1	0	pure_pref	pure_pref	4
sub-002	8	2	49	0	[5, 1, 3]	2	2	1.03603863346143	1	0	pure_pref	pure_pref	4
sub-002	9	2	50	0	[6, 4, 2]	2	1	0.91213730590971	0	0	pure_pref	pure_pref	4
sub-002	10	2	51	0	[3, 5, 1]	2	1	1.02005726470452	0	0	pure_pref	pure_pref	4
sub-002	11	2	52	0	[1, 5, 3]	2	2	1.34011757739063	1	0	pure_pref	pure_pref	4
sub-002	12	2	53	0	[3, 5, 1]	2	1	0.992083337998338	0	0	pure_pref	pure_pref	4
sub-002	13	2	54	0	[2, 6, 4]	2	1	1.42415412329501	0	0	pure_pref	pure_pref	4
sub-002	14	2	55	0	[1, 3, 5]	2	2	1.57616280444199	1	0	pure_pref	pure_pref	4
sub-002	15	2	56	0	[6, 4, 2]	2	1	1.0682050880132	0	0	pure_pref	pure_pref	4
sub-002	16	2	57	0	[3, 5, 1]	2	1	1.09219797937476	0	0	pure_pref	pure_pref	4
sub-002	17	2	58	0	[5, 3, 1]	2	1	1.28013768162054	0	0	pure_pref	pure_pref	4
sub-002	18	2	59	0	[4, 6, 2]	2	1	1.23236930074199	0	0	pure_pref	pure_pref	4
sub-002	19	2	60	0	[3, 1, 5]	2	2	1.00021398064928	1	0	pure_pref	pure_pref	4
sub-002	0	3	61	0	[5, 1, 3]	2	2	0.956300361653121	1	0	pure_pref	pure_pref	4
sub-002	1	3	62	0	[1, 5, 3]	2	2	1.6803748020393	1	0	pure_pref	pure_pref	4
sub-002	2	3	63	0	[6, 2, 4]	2	2	0.896377382243372	1	0	pure_pref	pure_pref	4
sub-002	3	3	64	0	[5, 3, 1]	2	1	0.956389934948675	0	0	pure_pref	pure_pref	4
sub-002	4	3	65	0	[4, 6, 2]	2	1	0.936427530847141	0	0	pure_pref	pure_pref	4
sub-002	5	3	66	0	[5, 3, 1]	2	1	0.980362610116572	0	0	pure_pref	pure_pref	4
sub-002	6	3	67	0	[2, 4, 6]	2	2	1.14446461917032	1	0	pure_pref	pure_pref	4
sub-002	7	3	68	0	[3, 1, 5]	2	2	0.952420718302164	1	0	pure_pref	pure_pref	4
sub-002	8	3	69	0	[5, 1, 3]	2	2	0.936509639705037	1	0	pure_pref	pure_pref	4
sub-002	9	3	70	0	[3, 1, 5]	2	2	1.04846723919036	1	0	pure_pref	pure_pref	4
sub-002	10	3	71	0	[5, 1, 3]	2	2	1.05650893058191	1	0	pure_pref	pure_pref	4
sub-002	11	3	72	0	[6, 4, 2]	2	1	1.04055119922486	0	0	pure_pref	pure_pref	4
sub-002	12	3	73	0	[2, 4, 6]	2	2	1.77254385670312	1	0	pure_pref	pure_pref	4
sub-002	13	3	74	0	[5, 3, 1]	2	1	0.89669773118294	0	0	pure_pref	pure_pref	4
sub-002	14	3	75	0	[3, 5, 1]	2	1	0.908632750732068	0	0	pure_pref	pure_pref	4
sub-002	15	3	76	0	[2, 6, 4]	2	1	1.2967009657732	0	0	pure_pref	pure_pref	4
sub-002	16	3	77	0	[3, 5, 1]	2	1	1.13674172162428	0	0	pure_pref	pure_pref	4
sub-002	17	3	78	0	[1, 5, 3]	2	2	1.25273820587245	1	0	pure_pref	pure_pref	4
sub-002	18	3	79	0	[4, 6, 2]	2	1	1.02469299374934	0	0	pure_pref	pure_pref	4
sub-002	19	3	80	0	[3, 1, 5]	2	2	0.812703794799745	1	0	pure_pref	pure_pref	4
sub-002	0	4	81	0	[5, 1, 3]	2	2	0.885064088448416	1	2	mix	1st	6
sub-002	1	4	82	0	[3, 1, 5]	2	2	0.797085073481867	1	2	mix	stay_pref	0
sub-002	2	4	83	0	[6, 2, 4]	2	2	1.01304317805989	1	2	mix	stay_pref	0
sub-002	3	4	84	0	[4, 2, 6]	2	2	0.909097412200936	1	2	mix	stay_pref	0
sub-002	4	4	85	0	[5, 1, 3]	2	2	0.8971726562595	1	2	mix	stay_pref	0
sub-002	5	4	86	0	[1, 5, 3]	2	2	1.11721225511792	1	2	mix	stay_pref	0
sub-002	6	4	87	0	[6, 2, 4]	2	2	1.01317069559809	1	2	mix	stay_pref	0
sub-002	7	4	88	0	[3, 1, 5]	2	2	0.80118771701018	1	2	mix	stay_pref	0
sub-002	8	4	89	0	[4, 6, 2]	2	1	0.873155816479994	0	2	mix	stay_pref	0
sub-002	9	4	90	0	[1, 5, 3]	2	2	0.901203143523162	1	2	mix	stay_pref	0
sub-002	10	4	91	1	[6, 4, 5]	2	2	1.36526590205904	1	2	mix	switch_pref	2
sub-002	11	4	92	1	[2, 4, 3]	2	2	1.25729866846814	1	2	mix	stay_sim	1
sub-002	12	4	93	1	[4, 5, 6]	1	1	1.12130401300601	1	2	mix	stay_sim	1
sub-002	13	4	94	1	[5, 4, 3]	1	1	1.5173582471507	1	2	mix	stay_sim	1
sub-002	14	4	95	1	[4, 2, 3]	2	2	1.49734919029288	1	2	mix	stay_sim	1
sub-002	15	4	96	1	[1, 3, 2]	2	2	1.36141425036476	1	2	mix	stay_sim	1
sub-002	16	4	97	1	[2, 3, 4]	1	1	1.26138980432006	1	2	mix	stay_sim	1
sub-002	17	4	98	1	[1, 6, 5]	1	1	1.3493570005885	1	2	mix	stay_sim	1
sub-002	18	4	99	1	[4, 2, 3]	2	2	1.32145709625911	1	2	mix	stay_sim	1
sub-002	19	4	100	1	[6, 2, 1]	2	2	1.48147450084798	1	2	mix	stay_sim	1
sub-002	0	5	101	1	[1, 2, 3]	1	1	1.01354702784738	1	1	pure_sim	pure_sim	5
sub-002	1	5	102	1	[4, 3, 2]	1	1	1.12564489662327	1	1	pure_sim	pure_sim	5
sub-002	2	5	103	1	[3, 1, 2]	2	2	1.40161990815977	1	1	pure_sim	pure_sim	5
sub-002	3	5	104	1	[4, 6, 5]	2	2	1.1776449936624	1	1	pure_sim	pure_sim	5
sub-002	4	5	105	1	[2, 3, 4]	1	1	1.6496632914932	1	1	pure_sim	pure_sim	5
sub-002	5	5	106	1	[5, 4, 3]	1	1	1.3256791708518	1	1	pure_sim	pure_sim	5
sub-002	6	5	107	1	[2, 6, 1]	2	2	2.06970668478243	1	1	pure_sim	pure_sim	5
sub-002	7	5	108	1	[4, 6, 5]	2	2	1.64574259371875	1	1	pure_sim	pure_sim	5
sub-002	8	5	109	1	[3, 4, 5]	1	1	1.61377985620857	1	1	pure_sim	pure_sim	5
sub-002	9	5	110	1	[5, 4, 3]	1	1	1.30581535958117	1	1	pure_sim	pure_sim	5
sub-002	10	5	111	1	[4, 2, 3]	2	2	1.21382980576527	1	1	pure_sim	pure_sim	5
sub-002	11	5	112	1	[5, 1, 6]	2	2	1.62986479408573	1	1	pure_sim	pure_sim	5
sub-002	12	5	113	1	[2, 3, 4]	1	1	1.29787537120137	1	1	pure_sim	pure_sim	5
sub-002	13	5	114	1	[1, 6, 5]	1	1	1.18588107154574	1	1	pure_sim	pure_sim	5
sub-002	14	5	115	1	[4, 2, 3]	2	2	1.29398359813422	1	1	pure_sim	pure_sim	5
sub-002	15	5	116	1	[5, 1, 6]	2	2	1.45398016448962	1	1	pure_sim	pure_sim	5
sub-002	16	5	117	1	[1, 2, 3]	1	1	1.99001817591125	1	1	pure_sim	pure_sim	5
sub-002	17	5	118	1	[3, 2, 1]	1	1	1.37799308543981	1	1	pure_sim	pure_sim	5
sub-002	18	5	119	1	[6, 4, 5]	2	2	1.51807079027276	1	1	pure_sim	pure_sim	5
sub-002	19	5	120	1	[3, 5, 4]	2	2	1.47404738178375	1	1	pure_sim	pure_sim	5
sub-002	0	6	121	1	[2, 3, 4]	1	1	1.09015334450305	1	1	pure_sim	pure_sim	5
sub-002	1	6	122	1	[6, 5, 4]	1	1	1.43013469584184	1	1	pure_sim	pure_sim	5
sub-002	2	6	123	1	[1, 5, 6]	2	2	1.45017050028036	1	1	pure_sim	pure_sim	5
sub-002	3	6	124	1	[6, 2, 1]	2	2	1.56210663949605	1	1	pure_sim	pure_sim	5
sub-002	4	6	125	1	[2, 3, 4]	1	1	1.30222807351674	1	1	pure_sim	pure_sim	5
sub-002	5	6	126	1	[1, 6, 5]	1	1	1.10220779511656	1	1	pure_sim	pure_sim	5
sub-002	6	6	127	1	[2, 6, 1]	2	2	1.30224175832336	1	1	pure_sim	pure_sim	5
sub-002	7	6	128	1	[3, 5, 4]	2	2	1.3182588941927	1	1	pure_sim	pure_sim	5
sub-002	8	6	129	1	[2, 3, 4]	1	1	1.30634720102171	1	1	pure_sim	pure_sim	5
sub-002	9	6	130	1	[5, 4, 3]	1	1	1.05033272747096	1	1	pure_sim	pure_sim	5
sub-002	10	6	131	1	[1, 5, 6]	2	2	1.05434517567119	1	1	pure_sim	pure_sim	5
sub-002	11	6	132	1	[6, 2, 1]	2	2	1.67431554183713	1	1	pure_sim	pure_sim	5
sub-002	12	6	133	1	[5, 6, 1]	1	1	1.45036426473234	1	1	pure_sim	pure_sim	5
sub-002	13	6	134	1	[2, 1, 6]	1	1	1.50242843155866	1	1	pure_sim	pure_sim	5
sub-002	14	6	135	1	[4, 2, 3]	2	2	1.57848797789484	1	1	pure_sim	pure_sim	5
sub-002	15	6	136	1	[2, 4, 3]	2	2	1.39046181254162	1	1	pure_sim	pure_sim	5
sub-002	16	6	137	1	[6, 1, 2]	1	1	1.12252258304579	1	1	pure_sim	pure_sim	5
sub-002	17	6	138	1	[3, 2, 1]	1	1	1.34250464350407	1	1	pure_sim	pure_sim	5
sub-002	18	6	139	1	[5, 3, 4]	2	2	1.22648421083795	1	1	pure_sim	pure_sim	5
sub-002	19	6	140	1	[1, 3, 2]	2	2	1.16655532208461	1	1	pure_sim	pure_sim	5
sub-002	0	7	141	1	[4, 5, 6]	1	1	0.95876860356293	1	1	pure_sim	pure_sim	5
sub-002	1	7	142	1	[1, 6, 5]	1	1	1.25880088727354	1	1	pure_sim	pure_sim	5
sub-002	2	7	143	1	[3, 1, 2]	2	2	1.27882642810437	1	1	pure_sim	pure_sim	5
sub-002	3	7	144	1	[6, 2, 1]	2	2	1.40283816718147	1	1	pure_sim	pure_sim	5
sub-002	4	7	145	1	[1, 2, 3]	1	1	1.45885942093446	1	1	pure_sim	pure_sim	5
sub-002	5	7	146	1	[2, 1, 6]	1	1	1.71488042587225	1	1	pure_sim	pure_sim	5
sub-002	6	7	147	1	[4, 2, 3]	2	2	1.12291508825001	1	1	pure_sim	pure_sim	5
sub-002	7	7	148	1	[3, 5, 4]	2	1	1.59496666504856	0	1	pure_sim	pure_sim	5
sub-002	8	7	149	1	[2, 3, 4]	1	1	1.09494738190915	1	1	pure_sim	pure_sim	5
sub-002	9	7	150	1	[3, 2, 1]	1	1	1.80698292260058	1	1	pure_sim	pure_sim	5
sub-002	10	7	151	1	[4, 2, 3]	2	2	1.15102804017442	1	1	pure_sim	pure_sim	5
sub-002	11	7	152	1	[2, 4, 3]	2	2	1.3990225936177	1	1	pure_sim	pure_sim	5
sub-002	12	7	153	1	[3, 4, 5]	1	1	1.32704049832682	1	1	pure_sim	pure_sim	5
sub-002	13	7	154	1	[6, 5, 4]	1	1	1.39912585172351	1	1	pure_sim	pure_sim	5
sub-002	14	7	155	1	[2, 6, 1]	2	2	1.31513875774181	1	1	pure_sim	pure_sim	5
sub-002	15	7	156	1	[5, 1, 6]	2	2	1.30712568003946	1	1	pure_sim	pure_sim	5
sub-002	16	7	157	1	[3, 4, 5]	1	1	1.3631385362969	1	1	pure_sim	pure_sim	5
sub-002	17	7	158	1	[5, 4, 3]	1	1	1.03916250213297	1	1	pure_sim	pure_sim	5
sub-002	18	7	159	1	[6, 4, 5]	2	2	1.79521118770572	1	1	pure_sim	pure_sim	5
sub-002	19	7	160	1	[2, 4, 3]	2	2	1.32725976628717	1	1	pure_sim	pure_sim	5
sub-002	0	8	161	1	[6, 1, 2]	1	2	1.45534429113104	0	1	pure_sim	pure_sim	5
sub-002	1	8	162	1	[4, 3, 2]	1	1	0.891439343329694	1	1	pure_sim	pure_sim	5
sub-002	2	8	163	1	[6, 4, 5]	2	2	1.35148654347722	1	1	pure_sim	pure_sim	5
sub-002	3	8	164	1	[3, 5, 4]	2	2	1.25950969817495	1	1	pure_sim	pure_sim	5
sub-002	4	8	165	1	[2, 3, 4]	1	1	1.18355061077818	1	1	pure_sim	pure_sim	5
sub-002	5	8	166	1	[1, 6, 5]	1	1	1.22362688492649	1	1	pure_sim	pure_sim	5
sub-002	6	8	167	1	[4, 2, 3]	2	2	1.25161760662377	1	1	pure_sim	pure_sim	5
sub-002	7	8	168	1	[3, 5, 4]	2	2	1.1075790826435	1	1	pure_sim	pure_sim	5
sub-002	8	8	169	1	[4, 5, 6]	1	1	1.25163098041594	1	1	pure_sim	pure_sim	5
sub-002	9	8	170	1	[5, 4, 3]	1	1	1.07969752839927	1	1	pure_sim	pure_sim	5
sub-002	10	8	171	1	[6, 4, 5]	2	2	1.45173305664866	1	1	pure_sim	pure_sim	5
sub-002	11	8	172	1	[3, 5, 4]	2	2	1.61580862914343	1	1	pure_sim	pure_sim	5
sub-002	12	8	173	1	[1, 2, 3]	1	1	1.03575000839555	1	1	pure_sim	pure_sim	5
sub-002	13	8	174	1	[4, 3, 2]	1	1	1.01979538722662	1	1	pure_sim	pure_sim	5
sub-002	14	8	175	1	[5, 3, 4]	2	2	1.3717829813213	1	1	pure_sim	pure_sim	5
sub-002	15	8	176	1	[6, 2, 1]	2	2	1.27577564875173	1	1	pure_sim	pure_sim	5
sub-002	16	8	177	1	[5, 6, 1]	1	1	1.81180184147888	1	1	pure_sim	pure_sim	5
sub-002	17	8	178	1	[3, 2, 1]	1	1	1.61593863482631	1	1	pure_sim	pure_sim	5
sub-002	18	8	179	1	[1, 5, 6]	2	2	1.29991036450156	1	1	pure_sim	pure_sim	5
sub-002	19	8	180	1	[2, 4, 3]	2	2	1.159856919101	1	1	pure_sim	pure_sim	5
sub-002	0	9	181	1	[3, 1, 2]	2	2	1.17230791815746	1	2	mix	1st	6
sub-002	1	9	182	1	[6, 2, 1]	2	2	1.36050514362432	1	2	mix	stay_sim	1
sub-002	2	9	183	0	[2, 4, 6]	2	2	1.21642836437968	1	2	mix	switch_sim	3
sub-002	3	9	184	0	[5, 3, 1]	2	1	1.15245996882368	0	2	mix	stay_pref	0
sub-002	4	9	185	0	[5, 1, 3]	2	2	1.20854715847236	1	2	mix	stay_pref	0
sub-002	5	9	186	0	[6, 4, 2]	2	1	1.2965317717717	0	2	mix	stay_pref	0
sub-002	6	9	187	0	[3, 1, 5]	2	2	1.24855563061283	1	2	mix	stay_pref	0
sub-002	7	9	188	0	[5, 3, 1]	2	1	1.07255872337919	0	2	mix	stay_pref	0
sub-002	8	9	189	1	[3, 4, 5]	1	1	1.46836725299727	1	2	mix	switch_pref	2
sub-002	9	9	190	0	[4, 6, 2]	2	2	1.74065047629119	1	2	mix	switch_sim	3
sub-002	10	9	191	1	[5, 4, 3]	1	1	1.36868181699538	1	2	mix	switch_pref	2
sub-002	11	9	192	0	[5, 3, 1]	2	1	1.35273901451728	0	2	mix	switch_sim	3
sub-002	12	9	193	1	[4, 5, 6]	1	1	1.25671457593853	1	2	mix	switch_pref	2
sub-002	13	9	194	1	[3, 1, 2]	2	2	1.6606991568915	1	2	mix	stay_sim	1
sub-002	14	9	195	0	[5, 3, 1]	2	1	1.51276388355109	0	2	mix	switch_sim	3
sub-002	15	9	196	0	[5, 3, 1]	2	1	1.02475581946419	0	2	mix	stay_pref	0
sub-002	16	9	197	1	[6, 1, 2]	1	1	1.90079353230976	1	2	mix	switch_pref	2
sub-002	17	9	198	0	[2, 6, 4]	2	1	1.80882539552113	0	2	mix	switch_sim	3
sub-002	18	9	199	0	[2, 6, 4]	2	1	1.41283212098642	0	2	mix	stay_pref	0
sub-002	19	9	200	0	[2, 4, 6]	2	2	1.34087366308813	1	2	mix	stay_pref	0
sub-002	0	10	201	1	[1, 5, 6]	2	2	1.42491767343381	1	2	mix	1st	6
sub-002	1	10	202	0	[4, 2, 6]	2	2	1.34897133778941	1	2	mix	switch_sim	3
sub-002	2	10	203	1	[1, 6, 5]	1	1	1.20902146151275	1	2	mix	switch_pref	2
sub-002	3	10	204	1	[1, 6, 5]	1	1	1.15703971456242	1	2	mix	stay_sim	1
sub-002	4	10	205	0	[2, 4, 6]	2	2	1.77708379208343	1	2	mix	switch_sim	3
sub-002	5	10	206	1	[5, 6, 1]	1	1	1.46105645481293	1	2	mix	switch_pref	2
sub-002	6	10	207	1	[5, 6, 1]	1	1	1.12506982362902	1	2	mix	stay_sim	1
sub-002	7	10	208	1	[2, 4, 3]	2	2	1.70103295426088	1	2	mix	stay_sim	1
sub-002	8	10	209	1	[1, 2, 3]	1	1	1.74915309693097	1	2	mix	stay_sim	1
sub-002	9	10	210	0	[6, 2, 4]	2	2	1.28105860705909	1	2	mix	switch_sim	3
sub-002	10	10	211	0	[2, 4, 6]	2	2	1.68117940660159	1	2	mix	stay_pref	0
sub-002	11	10	212	0	[6, 4, 2]	2	2	1.8172179156536	1	2	mix	stay_pref	0
sub-002	12	10	213	0	[6, 4, 2]	2	2	1.49717844120096	1	2	mix	stay_pref	0
sub-002	13	10	214	1	[5, 1, 6]	2	2	1.48928759372575	1	2	mix	switch_pref	2
sub-002	14	10	215	0	[4, 6, 2]	2	2	1.81324558882625	1	2	mix	switch_sim	3
sub-002	15	10	216	0	[1, 5, 3]	2	2	1.65733487100806	1	2	mix	stay_pref	0
sub-002	16	10	217	0	[1, 3, 5]	2	1	1.65725649437445	0	2	mix	stay_pref	0
sub-002	17	10	218	1	[1, 5, 6]	2	2	1.60931456524122	1	2	mix	switch_pref	2
sub-002	18	10	219	1	[2, 1, 6]	1	1	2.33733987218511	1	2	mix	stay_sim	1
sub-002	19	10	220	1	[6, 5, 4]	1	2	1.88142766147939	0	2	mix	stay_sim	1
sub-002	0	11	221	1	[6, 2, 1]	2	2	1.23364416510958	1	2	mix	1st	6
sub-002	1	11	222	1	[3, 4, 5]	1	1	1.44568903635081	1	2	mix	stay_sim	1
sub-002	2	11	223	1	[1, 5, 6]	2	2	1.43390268359144	1	2	mix	stay_sim	1
sub-002	3	11	224	1	[1, 2, 3]	1	1	1.27768436858969	1	2	mix	stay_sim	1
sub-002	4	11	225	1	[3, 2, 1]	1	1	1.29772203913308	1	2	mix	stay_sim	1
sub-002	5	11	226	0	[1, 3, 5]	2	1	1.50577001310012	0	2	mix	switch_sim	3
sub-002	6	11	227	0	[3, 1, 5]	2	2	1.39779531506792	1	2	mix	stay_pref	0
sub-002	7	11	228	0	[3, 5, 1]	2	1	1.27782868112263	0	2	mix	stay_pref	0
sub-002	8	11	229	0	[2, 4, 6]	2	2	1.25388555269819	1	2	mix	stay_pref	0
sub-002	9	11	230	0	[3, 1, 5]	2	2	1.28589618704063	1	2	mix	stay_pref	0
sub-002	10	11	231	1	[1, 3, 2]	2	2	1.50992832892371	1	2	mix	switch_pref	2
sub-002	11	11	232	0	[1, 3, 5]	2	1	1.7579272366238	0	2	mix	switch_sim	3
sub-002	12	11	233	0	[5, 3, 1]	2	1	1.58993283246673	0	2	mix	stay_pref	0
sub-002	13	11	234	1	[6, 1, 2]	1	2	1.41401927816332	0	2	mix	switch_pref	2
sub-002	14	11	235	1	[5, 4, 3]	1	1	1.29003148750417	1	2	mix	stay_sim	1
sub-002	15	11	236	1	[6, 1, 2]	1	1	1.40206155427222	1	2	mix	stay_sim	1
sub-002	16	11	237	1	[5, 6, 1]	1	1	1.50202410765633	1	2	mix	stay_sim	1
sub-002	17	11	238	0	[6, 4, 2]	2	1	1.21002449580919	0	2	mix	switch_sim	3
sub-002	18	11	239	0	[1, 3, 5]	2	2	1.48608006110953	1	2	mix	stay_pref	0
sub-002	19	11	240	0	[2, 6, 4]	2	1	1.88606805579911	0	2	mix	stay_pref	0
sub-002	0	12	241	0	[4, 2, 6]	2	2	1.25430356141078	1	2	mix	1st	6
sub-002	1	12	242	1	[4, 5, 6]	1	1	1.33441287815003	1	2	mix	switch_pref	2
sub-002	2	12	243	1	[2, 6, 1]	2	2	1.29843302716836	1	2	mix	stay_sim	1
sub-002	3	12	244	0	[6, 4, 2]	2	1	1.20244062348138	0	2	mix	switch_sim	3
sub-002	4	12	245	0	[2, 6, 4]	2	1	1.50651925639249	0	2	mix	stay_pref	0
sub-002	5	12	246	0	[1, 3, 5]	2	2	1.83449840820686	1	2	mix	stay_pref	0
sub-002	6	12	247	0	[4, 6, 2]	2	1	1.31055185858349	0	2	mix	stay_pref	0
sub-002	7	12	248	0	[5, 3, 1]	2	1	1.24255577492659	0	2	mix	stay_pref	0
sub-002	8	12	249	0	[1, 5, 3]	2	2	1.47847130730952	1	2	mix	stay_pref	0
sub-002	9	12	250	1	[1, 6, 5]	1	1	1.52259548575603	1	2	mix	switch_pref	2
sub-002	10	12	251	1	[2, 6, 1]	2	2	1.31870458354024	1	2	mix	stay_sim	1
sub-002	11	12	252	1	[4, 6, 5]	2	2	1.33867507411924	1	2	mix	stay_sim	1
sub-002	12	12	253	1	[3, 4, 5]	1	1	1.70675662562644	1	2	mix	stay_sim	1
sub-002	13	12	254	0	[4, 6, 2]	2	1	1.30669771874454	0	2	mix	switch_sim	3
sub-002	14	12	255	0	[5, 1, 3]	2	2	1.31869152076615	1	2	mix	stay_pref	0
sub-002	15	12	256	0	[5, 1, 3]	2	2	1.21072335412464	1	2	mix	stay_pref	0
sub-002	16	12	257	0	[2, 4, 6]	2	2	1.47874251534086	1	2	mix	stay_pref	0
sub-002	17	12	258	1	[3, 2, 1]	1	1	1.18684242937525	1	2	mix	switch_pref	2
sub-002	18	12	259	1	[3, 2, 1]	1	1	1.03898086739355	1	2	mix	stay_sim	1
sub-002	19	12	260	1	[5, 6, 1]	1	1	1.16289992299062	1	2	mix	stay_sim	1
sub-002	0	13	261	0	[3, 5, 1]	2	1	0.943053777566092	0	2	mix	1st	6
sub-002	1	13	262	1	[6, 4, 5]	2	1	1.44307772598404	0	2	mix	switch_pref	2
sub-002	2	13	263	1	[3, 5, 4]	2	2	1.40712493359752	1	2	mix	stay_sim	1
sub-002	3	13	264	1	[5, 4, 3]	1	1	1.71117277568919	1	2	mix	stay_sim	1
sub-002	4	13	265	0	[3, 5, 1]	2	1	1.42308484208479	0	2	mix	switch_sim	3
sub-002	5	13	266	0	[6, 4, 2]	2	2	1.31919319342705	1	2	mix	stay_pref	0
sub-002	6	13	267	1	[6, 5, 4]	1	1	1.97916176812578	1	2	mix	switch_pref	2
sub-002	7	13	268	1	[5, 1, 6]	2	2	1.85918020529789	1	2	mix	stay_sim	1
sub-002	8	13	269	1	[4, 6, 5]	2	2	1.15118976973463	1	2	mix	stay_sim	1
sub-002	9	13	270	1	[3, 1, 2]	2	2	1.55130839214689	1	2	mix	stay_sim	1
sub-002	10	13	271	1	[5, 3, 4]	2	2	1.40727235631493	1	2	mix	stay_sim	1
sub-002	11	13	272	1	[4, 5, 6]	1	1	1.687394175995	1	2	mix	stay_sim	1
sub-002	12	13	273	1	[4, 5, 6]	1	1	1.67129182108692	1	2	mix	stay_sim	1
sub-002	13	13	274	1	[6, 2, 1]	2	2	1.64740249884562	1	2	mix	stay_sim	1
sub-002	14	13	275	1	[4, 2, 3]	2	2	1.8434616470804	1	2	mix	stay_sim	1
sub-002	15	13	276	1	[3, 2, 1]	1	1	1.61149076088623	1	2	mix	stay_sim	1
sub-002	16	13	277	1	[2, 3, 4]	1	1	2.19956401442687	1	2	mix	stay_sim	1
sub-002	17	13	278	1	[3, 5, 4]	2	2	1.87930122877151	1	2	mix	stay_sim	1
sub-002	18	13	279	0	[1, 3, 5]	2	2	1.85158140408748	1	2	mix	switch_sim	3
sub-002	19	13	280	0	[3, 5, 1]	2	1	1.51148528696285	0	2	mix	stay_pref	0
sub-002	0	14	281	0	[6, 4, 2]	2	1	1.07180948008681	0	2	mix	1st	6
sub-002	1	14	282	0	[5, 3, 1]	2	1	1.03590178536979	0	2	mix	stay_pref	0
sub-002	2	14	283	1	[2, 1, 6]	1	1	1.36798513581016	1	2	mix	switch_pref	2
sub-002	3	14	284	0	[4, 2, 6]	2	2	1.69188186028623	1	2	mix	switch_sim	3
sub-002	4	14	285	0	[1, 5, 3]	2	2	1.59604434375797	1	2	mix	stay_pref	0
sub-002	5	14	286	1	[2, 3, 4]	1	1	1.48789889663021	1	2	mix	switch_pref	2
sub-002	6	14	287	1	[6, 5, 4]	1	1	1.51199597915547	1	2	mix	stay_sim	1
sub-002	7	14	288	1	[1, 6, 5]	1	1	1.59196191641968	1	2	mix	stay_sim	1
sub-002	8	14	289	1	[5, 3, 4]	2	2	1.70004329376025	1	2	mix	stay_sim	1
sub-002	9	14	290	0	[5, 3, 1]	2	1	1.52803239816058	0	2	mix	switch_sim	3
sub-002	10	14	291	0	[1, 5, 3]	2	2	1.36802401310706	1	2	mix	stay_pref	0
sub-002	11	14	292	1	[4, 6, 5]	2	2	1.34799567310984	1	2	mix	switch_pref	2
sub-002	12	14	293	1	[6, 4, 5]	2	2	1.62017283913883	1	2	mix	stay_sim	1
sub-002	13	14	294	1	[4, 2, 3]	2	2	1.86807408706591	1	2	mix	stay_sim	1
sub-002	14	14	295	1	[3, 5, 4]	2	2	1.54822588892057	1	2	mix	stay_sim	1
sub-002	15	14	296	1	[6, 4, 5]	2	2	1.5121813461119	1	2	mix	stay_sim	1
sub-002	16	14	297	1	[2, 4, 3]	2	2	1.42024493319695	1	2	mix	stay_sim	1
sub-002	17	14	298	1	[4, 3, 2]	1	1	1.9321986138566	1	2	mix	stay_sim	1
sub-002	18	14	299	0	[1, 5, 3]	2	2	1.54428435291629	1	2	mix	switch_sim	3
sub-002	19	14	300	1	[3, 2, 1]	1	1	1.46428358158664	1	2	mix	switch_pref	2
sub-002	0	15	301	0	[6, 4, 2]	2	2	1.2528694556313	1	2	mix	1st	6
sub-002	1	15	302	0	[1, 3, 5]	2	1	1.44493606084143	0	2	mix	stay_pref	0
sub-002	2	15	303	1	[4, 2, 3]	2	2	1.28502502453921	1	2	mix	switch_pref	2
sub-002	3	15	304	0	[1, 3, 5]	2	1	1.40092789225309	0	2	mix	switch_sim	3
sub-002	4	15	305	1	[2, 4, 3]	2	2	1.47303968221604	1	2	mix	switch_pref	2
sub-002	5	15	306	0	[2, 4, 6]	2	2	1.47302413129364	1	2	mix	switch_sim	3
sub-002	6	15	307	1	[2, 3, 4]	1	1	1.60104707449864	1	2	mix	switch_pref	2
sub-002	7	15	308	1	[6, 5, 4]	1	1	1.70122049835118	1	2	mix	stay_sim	1
sub-002	8	15	309	0	[4, 6, 2]	2	1	1.64908075405765	0	2	mix	switch_sim	3
sub-002	9	15	310	0	[3, 1, 5]	2	2	1.20914244766391	1	2	mix	stay_pref	0
sub-002	10	15	311	1	[2, 1, 6]	1	1	1.65717065330318	1	2	mix	switch_pref	2
sub-002	11	15	312	0	[1, 5, 3]	2	1	1.74915434101058	0	2	mix	switch_sim	3
sub-002	12	15	313	0	[3, 5, 1]	2	1	1.13716035236939	0	2	mix	stay_pref	0
sub-002	13	15	314	1	[1, 3, 2]	2	2	1.72519410657696	1	2	mix	switch_pref	2
sub-002	14	15	315	1	[6, 4, 5]	2	2	1.74531264190227	1	2	mix	stay_sim	1
sub-002	15	15	316	0	[2, 4, 6]	2	2	2.00929322937736	1	2	mix	switch_sim	3
sub-002	16	15	317	1	[4, 3, 2]	1	1	1.63331616512005	1	2	mix	switch_pref	2
sub-002	17	15	318	1	[4, 2, 3]	2	2	1.10936090697942	1	2	mix	stay_sim	1
sub-002	18	15	319	0	[4, 6, 2]	2	1	1.75340409623459	0	2	mix	switch_sim	3
sub-002	19	15	320	0	[3, 1, 5]	2	2	1.18138623382765	1	2	mix	stay_pref	0
sub-002	0	16	321	1	[3, 2, 1]	1	1	1.42148776266913	1	2	mix	1st	6
sub-002	1	16	322	0	[6, 4, 2]	2	2	1.49353641589914	1	2	mix	switch_sim	3
sub-002	2	16	323	1	[1, 3, 2]	2	2	1.66550003669909	1	2	mix	switch_pref	2
sub-002	3	16	324	1	[5, 3, 4]	2	2	1.92962835790968	1	2	mix	stay_sim	1
sub-002	4	16	325	0	[2, 4, 6]	2	2	1.42155463162271	1	2	mix	switch_sim	3
sub-002	5	16	326	1	[3, 5, 4]	2	2	1.86961860437441	1	2	mix	switch_pref	2
sub-002	6	16	327	0	[2, 6, 4]	2	2	1.66565741200611	1	2	mix	switch_sim	3
sub-002	7	16	328	0	[6, 2, 4]	2	1	1.58162273221024	0	2	mix	stay_pref	0
sub-002	8	16	329	0	[1, 5, 3]	2	2	1.73370294758206	1	2	mix	stay_pref	0
sub-002	9	16	330	0	[5, 1, 3]	2	2	1.32975195661493	1	2	mix	stay_pref	0
sub-002	10	16	331	0	[3, 5, 1]	2	1	1.15368849144943	0	2	mix	stay_pref	0
sub-002	11	16	332	0	[2, 6, 4]	2	1	1.36173615439475	0	2	mix	stay_pref	0
sub-002	12	16	333	0	[4, 6, 2]	2	1	1.64981133624678	0	2	mix	stay_pref	0
sub-002	13	16	334	1	[4, 2, 3]	2	2	1.65379641483014	1	2	mix	switch_pref	2
sub-002	14	16	335	0	[4, 6, 2]	2	1	1.33782070660891	0	2	mix	switch_sim	3
sub-002	15	16	336	1	[2, 3, 4]	1	2	1.70585405026941	0	2	mix	switch_pref	2
sub-002	16	16	337	0	[2, 4, 6]	2	2	1.73416729803648	1	2	mix	switch_sim	3
sub-002	17	16	338	0	[5, 3, 1]	2	1	1.30989685386157	0	2	mix	stay_pref	0
sub-002	18	16	339	1	[2, 6, 1]	2	2	1.52592587063191	1	2	mix	switch_pref	2
sub-002	19	16	340	1	[4, 5, 6]	1	1	1.31795409617553	1	2	mix	stay_sim	1
sub-003	0	0	1	0	[3, 5, 1]	2	1	1.30787807350907	0	0	pure_pref	pure_pref	4
sub-003	1	0	2	0	[4, 2, 6]	2	2	1.64939571683612	1	0	pure_pref	pure_pref	4
sub-003	2	0	3	0	[6, 2, 4]	2	1	0.804399791004698	0	0	pure_pref	pure_pref	4
sub-003	3	0	4	0	[2, 6, 4]	2	1	0.695197457221411	0	0	pure_pref	pure_pref	4
sub-003	4	0	5	0	[4, 6, 2]	2	2	1.37423072856086	1	0	pure_pref	pure_pref	4
sub-003	5	0	6	0	[3, 1, 5]	2	2	0.963175114605519	1	0	pure_pref	pure_pref	4
sub-003	6	0	7	0	[4, 6, 2]	2	1	1.20304660724401	0	0	pure_pref	pure_pref	4
sub-003	7	0	8	0	[1, 5, 3]	2	2	2.43526115109262	1	0	pure_pref	pure_pref	4
sub-003	8	0	9	0	[4, 6, 2]	2	1	1.19524908408948	0	0	pure_pref	pure_pref	4
sub-003	9	0	10	0	[5, 3, 1]	2	2	0.751530767747681	1	0	pure_pref	pure_pref	4
sub-003	10	0	11	0	[3, 5, 1]	2	1	1.29515018442612	0	0	pure_pref	pure_pref	4
sub-003	11	0	12	0	[2, 6, 4]	2	1	0.683345047863668	0	0	pure_pref	pure_pref	4
sub-003	12	0	13	0	[6, 2, 4]	2	0	0	nan	0	pure_pref	pure_pref	4
sub-003	13	0	14	0	[1, 5, 3]	2	1	1.53932941052062	0	0	pure_pref	pure_pref	4
sub-003	14	0	15	0	[4, 6, 2]	2	1	1.30344749298683	0	0	pure_pref	pure_pref	4
sub-003	15	0	16	0	[2, 6, 4]	2	1	0.97944099919755	0	0	pure_pref	pure_pref	4
sub-003	16	0	17	0	[4, 6, 2]	2	1	1.18738656084179	0	0	pure_pref	pure_pref	4
sub-003	17	0	18	0	[6, 4, 2]	2	2	0.904348475141433	1	0	pure_pref	pure_pref	4
sub-003	18	0	19	0	[3, 5, 1]	2	1	1.05285938209499	0	0	pure_pref	pure_pref	4
sub-003	19	0	20	0	[5, 3, 1]	2	1	0.835269859239133	0	0	pure_pref	pure_pref	4
sub-003	0	1	21	0	[3, 5, 1]	2	1	0.858580323320894	0	0	pure_pref	pure_pref	4
sub-003	1	1	22	0	[2, 6, 4]	2	1	0.623278430543223	0	0	pure_pref	pure_pref	4
sub-003	2	1	23	0	[5, 1, 3]	2	1	0.611582456816905	0	0	pure_pref	pure_pref	4
sub-003	3	1	24	0	[1, 5, 3]	2	1	1.90370158426049	0	0	pure_pref	pure_pref	4
sub-003	4	1	25	0	[2, 4, 6]	2	2	0.639709147907752	1	0	pure_pref	pure_pref	4
sub-003	5	1	26	0	[1, 5, 3]	2	1	1.07581841026581	0	0	pure_pref	pure_pref	4
sub-003	6	1	27	0	[4, 6, 2]	2	2	1.75954226250065	1	0	pure_pref	pure_pref	4
sub-003	7	1	28	0	[1, 5, 3]	2	1	0.832010524417001	0	0	pure_pref	pure_pref	4
sub-003	8	1	29	0	[4, 6, 2]	2	2	1.38341315800949	1	0	pure_pref	pure_pref	4
sub-003	9	1	30	0	[3, 1, 5]	2	1	1.75553713713452	0	0	pure_pref	pure_pref	4
sub-003	10	1	31	0	[4, 6, 2]	2	2	1.32794724107271	1	0	pure_pref	pure_pref	4
sub-003	11	1	32	0	[5, 3, 1]	2	2	0.855650965049335	1	0	pure_pref	pure_pref	4
sub-003	12	1	33	0	[3, 5, 1]	2	1	1.36796739421152	0	0	pure_pref	pure_pref	4
sub-003	13	1	34	0	[4, 2, 6]	2	1	1.62418501079196	0	0	pure_pref	pure_pref	4
sub-003	14	1	35	0	[5, 1, 3]	2	2	0.905232041002819	1	0	pure_pref	pure_pref	4
sub-003	15	1	36	0	[6, 4, 2]	2	2	0.61950873613705	1	0	pure_pref	pure_pref	4
sub-003	16	1	37	0	[3, 5, 1]	2	1	1.70385024476104	0	0	pure_pref	pure_pref	4
sub-003	17	1	38	0	[6, 4, 2]	2	2	0.527991403815577	1	0	pure_pref	pure_pref	4
sub-003	18	1	39	0	[3, 5, 1]	2	1	1.10853336153104	0	0	pure_pref	pure_pref	4
sub-003	19	1	40	0	[2, 6, 4]	2	2	1.19232439089637	1	0	pure_pref	pure_pref	4
sub-003	0	2	41	0	[1, 3, 5]	2	2	1.39951887490747	1	0	pure_pref	pure_pref	4
sub-003	1	2	42	0	[2, 6, 4]	2	1	0.627878508916638	0	0	pure_pref	pure_pref	4
sub-003	2	2	43	0	[6, 2, 4]	2	2	1.76515559591712	1	0	pure_pref	pure_pref	4
sub-003	3	2	44	0	[2, 6, 4]	2	1	0.668004403834175	0	0	pure_pref	pure_pref	4
sub-003	4	2	45	0	[3, 5, 1]	2	1	1.59198259614732	0	0	pure_pref	pure_pref	4
sub-003	5	2	46	0	[6, 4, 2]	2	2	0.840360703867191	1	0	pure_pref	pure_pref	4
sub-003	6	2	47	0	[1, 3, 5]	2	2	1.52800415502998	1	0	pure_pref	pure_pref	4
sub-003	7	2	48	0	[5, 3, 1]	2	2	0.713152411223518	1	0	pure_pref	pure_pref	4
sub-003	8	2	49	0	[1, 3, 5]	2	2	0.912365878994024	1	0	pure_pref	pure_pref	4
sub-003	9	2	50	0	[3, 1, 5]	2	2	0.983901436222141	1	0	pure_pref	pure_pref	4
sub-003	10	2	51	0	[1, 3, 5]	2	2	1.28003470818385	1	0	pure_pref	pure_pref	4
sub-003	11	2	52	0	[3, 1, 5]	2	2	2.35586524765336	1	0	pure_pref	pure_pref	4
sub-003	12	2	53	0	[6, 2, 4]	2	1	0.692579104180595	0	0	pure_pref	pure_pref	4
sub-003	13	2	54	0	[2, 6, 4]	2	1	0.736375482835456	0	0	pure_pref	pure_pref	4
sub-003	14	2	55	0	[5, 1, 3]	2	1	1.02454080077632	0	0	pure_pref	pure_pref	4
sub-003	15	2	56	0	[6, 4, 2]	2	2	0.940026684249006	1	0	pure_pref	pure_pref	4
sub-003	16	2	57	0	[3, 5, 1]	2	1	0.69637025794782	0	0	pure_pref	pure_pref	4
sub-003	17	2	58	0	[6, 4, 2]	2	2	0.563797125067822	1	0	pure_pref	pure_pref	4
sub-003	18	2	59	0	[2, 4, 6]	2	2	0.564397987174061	1	0	pure_pref	pure_pref	4
sub-003	19	2	60	0	[1, 5, 3]	2	1	0.616457463814413	0	0	pure_pref	pure_pref	4
sub-003	0	3	61	0	[3, 5, 1]	2	1	0.990245320926306	0	0	pure_pref	pure_pref	4
sub-003	1	3	62	0	[6, 4, 2]	2	2	0.636743091018843	1	0	pure_pref	pure_pref	4
sub-003	2	3	63	0	[2, 4, 6]	2	2	0.492755444146496	1	0	pure_pref	pure_pref	4
sub-003	3	3	64	0	[1, 5, 3]	2	1	0.740681661265626	0	0	pure_pref	pure_pref	4
sub-003	4	3	65	0	[6, 2, 4]	2	1	0.600321268403604	0	0	pure_pref	pure_pref	4
sub-003	5	3	66	0	[4, 2, 6]	2	1	1.74064962772673	0	0	pure_pref	pure_pref	4
sub-003	6	3	67	0	[1, 3, 5]	2	2	0.880574302259902	1	0	pure_pref	pure_pref	4
sub-003	7	3	68	0	[3, 1, 5]	2	2	1.46468908807037	1	0	pure_pref	pure_pref	4
sub-003	8	3	69	0	[1, 3, 5]	2	2	0.988656395200451	1	0	pure_pref	pure_pref	4
sub-003	9	3	70	0	[6, 4, 2]	2	2	0.560737455603885	1	0	pure_pref	pure_pref	4
sub-003	10	3	71	0	[5, 1, 3]	2	1	0.588732591482312	0	0	pure_pref	pure_pref	4
sub-003	11	3	72	0	[2, 6, 4]	2	1	0.564422867592612	0	0	pure_pref	pure_pref	4
sub-003	12	3	73	0	[6, 2, 4]	2	1	0.53658789940846	0	0	pure_pref	pure_pref	4
sub-003	13	3	74	0	[3, 1, 5]	2	2	0.928715734998605	1	0	pure_pref	pure_pref	4
sub-003	14	3	75	0	[5, 1, 3]	2	1	0.624575322357032	0	0	pure_pref	pure_pref	4
sub-003	15	3	76	0	[3, 1, 5]	2	2	0.732719305338605	1	0	pure_pref	pure_pref	4
sub-003	16	3	77	0	[2, 4, 6]	2	2	0.632946650162694	1	0	pure_pref	pure_pref	4
sub-003	17	3	78	0	[6, 4, 2]	2	2	0.616599593205137	1	0	pure_pref	pure_pref	4
sub-003	18	3	79	0	[5, 1, 3]	2	1	1.21274623839167	0	0	pure_pref	pure_pref	4
sub-003	19	3	80	0	[3, 1, 5]	2	2	0.736803115028351	1	0	pure_pref	pure_pref	4
sub-003	0	4	81	0	[5, 1, 3]	2	1	0.646724492905832	0	2	mix	1st	6
sub-003	1	4	82	0	[1, 5, 3]	2	1	0.669142993985133	0	2	mix	stay_pref	0
sub-003	2	4	83	0	[3, 5, 1]	2	1	0.732586195099884	0	2	mix	stay_pref	0
sub-003	3	4	84	0	[2, 6, 4]	2	1	0.513623273143367	0	2	mix	stay_pref	0
sub-003	4	4	85	0	[3, 5, 1]	2	1	1.30509799774836	0	2	mix	stay_pref	0
sub-003	5	4	86	0	[4, 2, 6]	2	2	0.5484608351112	1	2	mix	stay_pref	0
sub-003	6	4	87	0	[1, 3, 5]	2	2	0.900554522326956	1	2	mix	stay_pref	0
sub-003	7	4	88	0	[6, 4, 2]	2	2	0.725336663162807	1	2	mix	stay_pref	0
sub-003	8	4	89	0	[3, 5, 1]	2	1	0.992753578115071	0	2	mix	stay_pref	0
sub-003	9	4	90	0	[5, 3, 1]	2	1	0.701290982714454	0	2	mix	stay_pref	0
sub-003	10	4	91	1	[1, 5, 6]	2	1	1.11981569830004	0	2	mix	switch_pref	2
sub-003	11	4	92	1	[2, 4, 3]	2	1	1.60514713657471	0	2	mix	stay_sim	1
sub-003	12	4	93	1	[3, 4, 5]	1	1	0.872777401115854	1	2	mix	stay_sim	1
sub-003	13	4	94	1	[2, 1, 6]	1	1	1.72538486897338	1	2	mix	stay_sim	1
sub-003	14	4	95	1	[1, 5, 6]	2	1	1.35263265928143	0	2	mix	stay_sim	1
sub-003	15	4	96	1	[4, 6, 5]	2	2	0.945231667796634	1	2	mix	stay_sim	1
sub-003	16	4	97	1	[2, 3, 4]	1	1	1.58077241259184	1	2	mix	stay_sim	1
sub-003	17	4	98	1	[5, 4, 3]	1	1	1.9292279606143	1	2	mix	stay_sim	1
sub-003	18	4	99	1	[6, 4, 5]	2	2	0.693517406962883	1	2	mix	stay_sim	1
sub-003	19	4	100	1	[1, 3, 2]	2	2	0.845235710864699	1	2	mix	stay_sim	1
sub-003	0	5	101	1	[6, 1, 2]	1	1	1.32511056235967	1	1	pure_sim	pure_sim	5
sub-003	1	5	102	1	[3, 2, 1]	1	1	0.801704619671682	1	1	pure_sim	pure_sim	5
sub-003	2	5	103	1	[5, 3, 4]	2	1	1.84555791228399	0	1	pure_sim	pure_sim	5
sub-003	3	5	104	1	[1, 3, 2]	2	2	0.69662123916919	1	1	pure_sim	pure_sim	5
sub-003	4	5	105	1	[2, 3, 4]	1	1	1.56162537553882	1	1	pure_sim	pure_sim	5
sub-003	5	5	106	1	[6, 5, 4]	1	1	0.869591463528423	1	1	pure_sim	pure_sim	5
sub-003	6	5	107	1	[4, 2, 3]	2	2	0.657471900677365	1	1	pure_sim	pure_sim	5
sub-003	7	5	108	1	[2, 4, 3]	2	2	1.62984592800854	1	1	pure_sim	pure_sim	5
sub-003	8	5	109	1	[1, 2, 3]	1	1	0.769676056951312	1	1	pure_sim	pure_sim	5
sub-003	9	5	110	1	[2, 1, 6]	1	1	1.24567920432423	1	1	pure_sim	pure_sim	5
sub-003	10	5	111	1	[3, 1, 2]	2	2	1.4047201263927	1	1	pure_sim	pure_sim	5
sub-003	11	5	112	1	[5, 1, 6]	2	2	0.800480814087223	1	1	pure_sim	pure_sim	5
sub-003	12	5	113	1	[1, 2, 3]	1	1	0.825670060770335	1	1	pure_sim	pure_sim	5
sub-003	13	5	114	1	[5, 4, 3]	1	1	1.62064017316789	1	1	pure_sim	pure_sim	5
sub-003	14	5	115	1	[3, 1, 2]	2	2	1.37370979479874	1	1	pure_sim	pure_sim	5
sub-003	15	5	116	1	[6, 2, 1]	2	1	0.961778701117737	0	1	pure_sim	pure_sim	5
sub-003	16	5	117	1	[2, 3, 4]	1	1	1.31391935012357	1	1	pure_sim	pure_sim	5
sub-003	17	5	118	1	[6, 5, 4]	1	1	0.990016732081358	1	1	pure_sim	pure_sim	5
sub-003	18	5	119	1	[3, 1, 2]	2	2	1.39365767032223	1	1	pure_sim	pure_sim	5
sub-003	19	5	120	1	[6, 2, 1]	2	2	1.00143404512073	1	1	pure_sim	pure_sim	5
sub-003	0	6	121	1	[3, 4, 5]	1	1	1.85107048000555	1	1	pure_sim	pure_sim	5
sub-003	1	6	122	1	[5, 4, 3]	1	1	1.86084724045054	1	1	pure_sim	pure_sim	5
sub-003	2	6	123	1	[2, 6, 1]	2	2	0.897968824835743	1	1	pure_sim	pure_sim	5
sub-003	3	6	124	1	[3, 5, 4]	2	2	0.754087541752597	1	1	pure_sim	pure_sim	5
sub-003	4	6	125	1	[5, 6, 1]	1	1	0.729808607380619	1	1	pure_sim	pure_sim	5
sub-003	5	6	126	1	[3, 2, 1]	1	1	0.930018224906462	1	1	pure_sim	pure_sim	5
sub-003	6	6	127	1	[6, 4, 5]	2	2	0.790594268795758	1	1	pure_sim	pure_sim	5
sub-003	7	6	128	1	[5, 1, 6]	2	2	1.0861226355828	1	1	pure_sim	pure_sim	5
sub-003	8	6	129	1	[4, 5, 6]	1	1	0.616954139168684	1	1	pure_sim	pure_sim	5
sub-003	9	6	130	1	[2, 1, 6]	1	1	0.786189812712792	1	1	pure_sim	pure_sim	5
sub-003	10	6	131	1	[5, 3, 4]	2	2	1.14860327550718	1	1	pure_sim	pure_sim	5
sub-003	11	6	132	1	[3, 5, 4]	2	2	0.982182821315064	1	1	pure_sim	pure_sim	5
sub-003	12	6	133	1	[2, 3, 4]	1	1	0.758435705888587	1	1	pure_sim	pure_sim	5
sub-003	13	6	134	1	[6, 5, 4]	1	1	0.582443443698821	1	1	pure_sim	pure_sim	5
sub-003	14	6	135	1	[5, 3, 4]	2	2	1.09013895713724	1	1	pure_sim	pure_sim	5
sub-003	15	6	136	1	[3, 5, 4]	2	2	0.913973465033678	1	1	pure_sim	pure_sim	5
sub-003	16	6	137	1	[1, 2, 3]	1	1	0.494551499356248	1	1	pure_sim	pure_sim	5
sub-003	17	6	138	1	[2, 1, 6]	1	1	0.633999402869904	1	1	pure_sim	pure_sim	5
sub-003	18	6	139	1	[4, 2, 3]	2	2	0.966337415795351	1	1	pure_sim	pure_sim	5
sub-003	19	6	140	1	[3, 5, 4]	2	2	0.628684012465101	1	1	pure_sim	pure_sim	5
sub-003	0	7	141	1	[2, 3, 4]	1	1	1.45815113610206	1	1	pure_sim	pure_sim	5
sub-003	1	7	142	1	[6, 5, 4]	1	1	0.565052653185603	1	1	pure_sim	pure_sim	5
sub-003	2	7	143	1	[3, 1, 2]	2	2	1.29287673618683	1	1	pure_sim	pure_sim	5
sub-003	3	7	144	1	[4, 6, 5]	2	2	0.598385260840132	1	1	pure_sim	pure_sim	5
sub-003	4	7	145	1	[5, 6, 1]	1	2	0.586485578687416	0	1	pure_sim	pure_sim	5
sub-003	5	7	146	1	[1, 6, 5]	1	1	1.22482443754711	1	1	pure_sim	pure_sim	5
sub-003	6	7	147	1	[5, 3, 4]	2	2	1.41283487488272	1	1	pure_sim	pure_sim	5
sub-003	7	7	148	1	[4, 6, 5]	2	2	1.36660736833596	1	1	pure_sim	pure_sim	5
sub-003	8	7	149	1	[3, 4, 5]	1	1	0.680774278623403	1	1	pure_sim	pure_sim	5
sub-003	9	7	150	1	[6, 5, 4]	1	1	0.774415154662847	1	1	pure_sim	pure_sim	5
sub-003	10	7	151	1	[5, 3, 4]	2	2	1.21054712040268	1	1	pure_sim	pure_sim	5
sub-003	11	7	152	1	[1, 3, 2]	2	2	1.00246875952439	1	1	pure_sim	pure_sim	5
sub-003	12	7	153	1	[6, 1, 2]	1	1	1.28665600955401	1	1	pure_sim	pure_sim	5
sub-003	13	7	154	1	[4, 3, 2]	1	1	0.709193936642123	1	1	pure_sim	pure_sim	5
sub-003	14	7	155	1	[3, 1, 2]	2	2	0.890546996000467	1	1	pure_sim	pure_sim	5
sub-003	15	7	156	1	[6, 2, 1]	2	2	2.20295797075323	1	1	pure_sim	pure_sim	5
sub-003	16	7	157	1	[1, 2, 3]	1	1	1.05087112565229	1	1	pure_sim	pure_sim	5
sub-003	17	7	158	1	[6, 5, 4]	1	1	0.858941711399666	1	1	pure_sim	pure_sim	5
sub-003	18	7	159	1	[4, 2, 3]	2	2	0.746985737300065	1	1	pure_sim	pure_sim	5
sub-003	19	7	160	1	[3, 5, 4]	2	2	1.32038359385206	1	1	pure_sim	pure_sim	5
sub-003	0	8	161	1	[1, 2, 3]	1	1	0.557710752694902	1	1	pure_sim	pure_sim	5
sub-003	1	8	162	1	[3, 2, 1]	1	1	1.66509681592856	1	1	pure_sim	pure_sim	5
sub-003	2	8	163	1	[6, 4, 5]	2	2	0.964982366003369	1	1	pure_sim	pure_sim	5
sub-003	3	8	164	1	[3, 5, 4]	2	2	0.788928213772579	1	1	pure_sim	pure_sim	5
sub-003	4	8	165	1	[1, 2, 3]	1	1	0.558661184681114	1	1	pure_sim	pure_sim	5
sub-003	5	8	166	1	[3, 2, 1]	1	1	0.699134783447107	1	1	pure_sim	pure_sim	5
sub-003	6	8	167	1	[4, 2, 3]	2	2	0.650561364442183	1	1	pure_sim	pure_sim	5
sub-003	7	8	168	1	[2, 4, 3]	2	2	1.49887136201642	1	1	pure_sim	pure_sim	5
sub-003	8	8	169	1	[4, 5, 6]	1	1	0.599029352673597	1	1	pure_sim	pure_sim	5
sub-003	9	8	170	1	[6, 5, 4]	1	1	1.19507865322294	1	1	pure_sim	pure_sim	5
sub-003	10	8	171	1	[1, 5, 6]	2	1	0.583082559448485	0	1	pure_sim	pure_sim	5
sub-003	11	8	172	1	[4, 6, 5]	2	2	1.08718440744178	1	1	pure_sim	pure_sim	5
sub-003	12	8	173	1	[6, 1, 2]	1	1	1.99682556960624	1	1	pure_sim	pure_sim	5
sub-003	13	8	174	1	[4, 3, 2]	1	1	1.19926291760225	1	1	pure_sim	pure_sim	5
sub-003	14	8	175	1	[2, 6, 1]	2	2	2.11466140860489	1	1	pure_sim	pure_sim	5
sub-003	15	8	176	1	[5, 1, 6]	2	2	1.08692502907888	1	1	pure_sim	pure_sim	5
sub-003	16	8	177	1	[3, 4, 5]	1	1	0.732931721911655	1	1	pure_sim	pure_sim	5
sub-003	17	8	178	1	[4, 3, 2]	1	1	0.594952385099305	1	1	pure_sim	pure_sim	5
sub-003	18	8	179	1	[5, 3, 4]	2	1	0.60306464554742	0	1	pure_sim	pure_sim	5
sub-003	19	8	180	1	[6, 2, 1]	2	2	1.32669420099637	1	1	pure_sim	pure_sim	5
sub-003	0	9	181	1	[1, 6, 5]	1	1	1.43213710354621	1	2	mix	1st	6
sub-003	1	9	182	1	[1, 5, 6]	2	2	1.19477542312256	1	2	mix	stay_sim	1
sub-003	2	9	183	1	[1, 6, 5]	1	1	0.643286641081431	1	2	mix	stay_sim	1
sub-003	3	9	184	0	[1, 5, 3]	2	1	1.70328017217253	0	2	mix	switch_sim	3
sub-003	4	9	185	1	[1, 2, 3]	1	1	1.09954935342012	1	2	mix	switch_pref	2
sub-003	5	9	186	0	[5, 1, 3]	2	2	1.01950842513179	1	2	mix	switch_sim	3
sub-003	6	9	187	1	[2, 3, 4]	1	1	1.95109722645543	1	2	mix	switch_pref	2
sub-003	7	9	188	1	[6, 4, 5]	2	2	1.58334815791613	1	2	mix	stay_sim	1
sub-003	8	9	189	0	[1, 5, 3]	2	1	0.84363932101337	0	2	mix	switch_sim	3
sub-003	9	9	190	1	[2, 6, 1]	2	2	1.45558067786715	1	2	mix	switch_pref	2
sub-003	10	9	191	0	[1, 5, 3]	2	1	1.10773438909246	0	2	mix	switch_sim	3
sub-003	11	9	192	1	[4, 6, 5]	2	2	0.856749435525444	1	2	mix	switch_pref	2
sub-003	12	9	193	0	[6, 2, 4]	2	1	1.07144971978437	0	2	mix	switch_sim	3
sub-003	13	9	194	0	[5, 1, 3]	2	1	1.18746804421266	0	2	mix	stay_pref	0
sub-003	14	9	195	1	[3, 5, 4]	2	2	0.761128389179476	1	2	mix	switch_pref	2
sub-003	15	9	196	1	[2, 6, 1]	2	1	0.787737374742619	0	2	mix	stay_sim	1
sub-003	16	9	197	1	[5, 3, 4]	2	2	1.20452108304448	1	2	mix	stay_sim	1
sub-003	17	9	198	0	[6, 2, 4]	2	1	0.828865639520018	0	2	mix	switch_sim	3
sub-003	18	9	199	0	[5, 1, 3]	2	1	0.995632864544859	0	2	mix	stay_pref	0
sub-003	19	9	200	1	[6, 5, 4]	1	1	0.95561271140582	1	2	mix	switch_pref	2
sub-003	0	10	201	1	[2, 1, 6]	1	1	1.79703549813712	1	2	mix	1st	6
sub-003	1	10	202	0	[4, 6, 2]	2	2	1.45681661265553	1	2	mix	switch_sim	3
sub-003	2	10	203	0	[1, 5, 3]	2	1	1.69969334884217	0	2	mix	stay_pref	0
sub-003	3	10	204	1	[5, 6, 1]	1	1	1.54804346609103	1	2	mix	switch_pref	2
sub-003	4	10	205	1	[5, 4, 3]	1	1	1.37576087429784	1	2	mix	stay_sim	1
sub-003	5	10	206	1	[3, 5, 4]	2	2	0.916101051819624	1	2	mix	stay_sim	1
sub-003	6	10	207	1	[6, 4, 5]	2	2	1.04798748514941	1	2	mix	stay_sim	1
sub-003	7	10	208	0	[2, 4, 6]	2	2	0.99698169423209	1	2	mix	switch_sim	3
sub-003	8	10	209	0	[2, 6, 4]	2	1	1.28811524609841	0	2	mix	stay_pref	0
sub-003	9	10	210	1	[4, 2, 3]	2	2	0.7202175170587	1	2	mix	switch_pref	2
sub-003	10	10	211	1	[3, 1, 2]	2	1	1.35594579800841	0	2	mix	stay_sim	1
sub-003	11	10	212	1	[6, 5, 4]	1	1	0.716191554342004	1	2	mix	stay_sim	1
sub-003	12	10	213	0	[5, 3, 1]	2	2	0.864366575645818	1	2	mix	switch_sim	3
sub-003	13	10	214	1	[4, 6, 5]	2	2	0.800221435724552	1	2	mix	switch_pref	2
sub-003	14	10	215	1	[5, 1, 6]	2	2	0.856182161983952	1	2	mix	stay_sim	1
sub-003	15	10	216	1	[5, 1, 6]	2	2	0.683887129981486	1	2	mix	stay_sim	1
sub-003	16	10	217	0	[3, 5, 1]	2	1	0.79613451598243	0	2	mix	switch_sim	3
sub-003	17	10	218	0	[4, 2, 6]	2	2	1.74025527309368	1	2	mix	stay_pref	0
sub-003	18	10	219	0	[3, 5, 1]	2	1	1.22378941213788	0	2	mix	stay_pref	0
sub-003	19	10	220	0	[4, 2, 6]	2	1	1.444286211894	0	2	mix	stay_pref	0
sub-003	0	11	221	1	[6, 1, 2]	1	1	1.21498267700872	1	2	mix	1st	6
sub-003	1	11	222	1	[6, 1, 2]	1	1	1.16845038533552	1	2	mix	stay_sim	1
sub-003	2	11	223	1	[3, 4, 5]	1	1	1.23229758224534	1	2	mix	stay_sim	1
sub-003	3	11	224	1	[4, 2, 3]	2	2	0.868408399629288	1	2	mix	stay_sim	1
sub-003	4	11	225	1	[6, 4, 5]	2	2	0.85600053492908	1	2	mix	stay_sim	1
sub-003	5	11	226	1	[6, 4, 5]	2	2	0.624068072824912	1	2	mix	stay_sim	1
sub-003	6	11	227	0	[1, 3, 5]	2	2	0.936058257499781	1	2	mix	switch_sim	3
sub-003	7	11	228	1	[3, 5, 4]	2	2	0.736326966019533	1	2	mix	switch_pref	2
sub-003	8	11	229	0	[5, 1, 3]	2	1	0.864490044722743	0	2	mix	switch_sim	3
sub-003	9	11	230	0	[4, 6, 2]	2	2	1.4966722440272	1	2	mix	stay_pref	0
sub-003	10	11	231	0	[6, 4, 2]	2	2	1.50831099279094	1	2	mix	stay_pref	0
sub-003	11	11	232	0	[5, 1, 3]	2	2	1.60397278082223	1	2	mix	stay_pref	0
sub-003	12	11	233	1	[5, 3, 4]	2	2	0.928590399890481	1	2	mix	switch_pref	2
sub-003	13	11	234	1	[5, 6, 1]	1	1	0.932729257506026	1	2	mix	stay_sim	1
sub-003	14	11	235	1	[3, 1, 2]	2	2	1.33653254047726	1	2	mix	stay_sim	1
sub-003	15	11	236	1	[4, 3, 2]	1	1	0.968619572181069	1	2	mix	stay_sim	1
sub-003	16	11	237	0	[2, 6, 4]	2	1	0.728628964539212	0	2	mix	switch_sim	3
sub-003	17	11	238	1	[5, 4, 3]	1	2	1.09672946898991	0	2	mix	switch_pref	2
sub-003	18	11	239	0	[4, 2, 6]	2	1	1.30875790730806	0	2	mix	switch_sim	3
sub-003	19	11	240	0	[6, 2, 4]	2	1	1.61677686618714	0	2	mix	stay_pref	0
sub-003	0	12	241	1	[1, 6, 5]	1	1	1.6678501452393	1	2	mix	1st	6
sub-003	1	12	242	0	[3, 1, 5]	2	2	1.40897716599557	1	2	mix	switch_sim	3
sub-003	2	12	243	1	[6, 2, 1]	2	2	0.676823579172378	1	2	mix	switch_pref	2
sub-003	3	12	244	1	[6, 2, 1]	2	2	0.633200119426419	1	2	mix	stay_sim	1
sub-003	4	12	245	0	[2, 6, 4]	2	1	0.756948478873255	0	2	mix	switch_sim	3
sub-003	5	12	246	1	[5, 6, 1]	1	2	0.79688434959462	0	2	mix	switch_pref	2
sub-003	6	12	247	1	[5, 6, 1]	1	1	0.989272807568341	1	2	mix	stay_sim	1
sub-003	7	12	248	0	[4, 2, 6]	2	1	1.35301301867912	0	2	mix	switch_sim	3
sub-003	8	12	249	0	[4, 6, 2]	2	2	0.840856135200283	1	2	mix	stay_pref	0
sub-003	9	12	250	1	[1, 6, 5]	1	2	0.957059818746075	0	2	mix	switch_pref	2
sub-003	10	12	251	0	[5, 1, 3]	2	2	1.17710441689633	1	2	mix	switch_sim	3
sub-003	11	12	252	0	[4, 6, 2]	2	2	2.30116906866397	1	2	mix	stay_pref	0
sub-003	12	12	253	0	[6, 4, 2]	2	2	1.11728598175023	1	2	mix	stay_pref	0
sub-003	13	12	254	0	[5, 1, 3]	2	2	1.38502914118999	1	2	mix	stay_pref	0
sub-003	14	12	255	1	[3, 5, 4]	2	2	1.14881009398596	1	2	mix	switch_pref	2
sub-003	15	12	256	1	[1, 3, 2]	2	2	1.02538206992631	1	2	mix	stay_sim	1
sub-003	16	12	257	0	[6, 2, 4]	2	1	0.820758355155704	0	2	mix	switch_sim	3
sub-003	17	12	258	1	[6, 1, 2]	1	2	0.989267831484995	0	2	mix	switch_pref	2
sub-003	18	12	259	0	[6, 2, 4]	2	1	0.917239952975706	0	2	mix	switch_sim	3
sub-003	19	12	260	1	[5, 4, 3]	1	2	1.18918417107761	0	2	mix	switch_pref	2
sub-003	0	13	261	0	[1, 5, 3]	2	1	1.92980767436484	0	2	mix	1st	6
sub-003	1	13	262	0	[6, 2, 4]	2	1	1.1088098451819	0	2	mix	stay_pref	0
sub-003	2	13	263	0	[6, 4, 2]	2	2	0.753519957205754	1	2	mix	stay_pref	0
sub-003	3	13	264	0	[2, 4, 6]	2	2	0.825433385789438	1	2	mix	stay_pref	0
sub-003	4	13	265	0	[3, 1, 5]	2	2	1.50099490573393	1	2	mix	stay_pref	0
sub-003	5	13	266	1	[4, 6, 5]	2	2	0.717411005853137	1	2	mix	switch_pref	2
sub-003	6	13	267	0	[6, 4, 2]	2	2	0.753380937867405	1	2	mix	switch_sim	3
sub-003	7	13	268	0	[3, 1, 5]	2	2	0.757300225790004	1	2	mix	stay_pref	0
sub-003	8	13	269	1	[1, 6, 5]	1	1	0.981487413618652	1	2	mix	switch_pref	2
sub-003	9	13	270	0	[1, 3, 5]	2	2	1.50153947589388	1	2	mix	switch_sim	3
sub-003	10	13	271	1	[4, 3, 2]	1	1	1.32138378667514	1	2	mix	switch_pref	2
sub-003	11	13	272	0	[6, 4, 2]	2	2	0.729532745740926	1	2	mix	switch_sim	3
sub-003	12	13	273	1	[3, 2, 1]	1	1	1.70951707107724	1	2	mix	switch_pref	2
sub-003	13	13	274	0	[4, 6, 2]	2	2	1.53764438417829	1	2	mix	switch_sim	3
sub-003	14	13	275	1	[5, 6, 1]	1	1	1.21710155564824	1	2	mix	switch_pref	2
sub-003	15	13	276	1	[3, 4, 5]	1	1	0.721747351790327	1	2	mix	stay_sim	1
sub-003	16	13	277	0	[2, 4, 6]	2	2	1.29782047534036	1	2	mix	switch_sim	3
sub-003	17	13	278	1	[2, 6, 1]	2	2	1.70150308828215	1	2	mix	switch_pref	2
sub-003	18	13	279	0	[4, 2, 6]	2	1	1.29730824972467	0	2	mix	switch_sim	3
sub-003	19	13	280	0	[1, 5, 3]	2	1	1.56584633853527	0	2	mix	stay_pref	0
sub-003	0	14	281	1	[5, 6, 1]	1	1	0.933035286653649	1	2	mix	1st	6
sub-003	1	14	282	0	[6, 4, 2]	2	2	0.881582581218936	1	2	mix	switch_sim	3
sub-003	2	14	283	1	[2, 6, 1]	2	1	1.39776014032577	0	2	mix	switch_pref	2
sub-003	3	14	284	0	[5, 1, 3]	2	2	1.38569997947343	1	2	mix	switch_sim	3
sub-003	4	14	285	1	[1, 5, 6]	2	2	1.70106488191141	1	2	mix	switch_pref	2
sub-003	5	14	286	1	[2, 1, 6]	1	1	2.04197544302679	1	2	mix	stay_sim	1
sub-003	6	14	287	0	[2, 4, 6]	2	2	0.893750660885871	1	2	mix	switch_sim	3
sub-003	7	14	288	1	[3, 2, 1]	1	1	1.13761235063976	1	2	mix	switch_pref	2
sub-003	8	14	289	0	[6, 2, 4]	2	1	1.26600370718234	0	2	mix	switch_sim	3
sub-003	9	14	290	0	[1, 5, 3]	2	1	1.8246527626593	0	2	mix	stay_pref	0
sub-003	10	14	291	1	[1, 6, 5]	1	1	1.86940828144725	1	2	mix	switch_pref	2
sub-003	11	14	292	0	[1, 3, 5]	2	1	1.91795775304945	0	2	mix	switch_sim	3
sub-003	12	14	293	1	[3, 5, 4]	2	2	0.878205375414836	1	2	mix	switch_pref	2
sub-003	13	14	294	0	[3, 5, 1]	2	1	1.74202955793726	0	2	mix	switch_sim	3
sub-003	14	14	295	0	[2, 6, 4]	2	1	1.04170051440269	0	2	mix	stay_pref	0
sub-003	15	14	296	0	[2, 6, 4]	2	1	0.622281036767163	0	2	mix	stay_pref	0
sub-003	16	14	297	1	[2, 1, 6]	1	1	1.53011152647605	1	2	mix	switch_pref	2
sub-003	17	14	298	0	[2, 6, 4]	2	1	1.54175462931289	0	2	mix	switch_sim	3
sub-003	18	14	299	1	[3, 4, 5]	1	1	1.41023393813475	1	2	mix	switch_pref	2
sub-003	19	14	300	1	[3, 4, 5]	1	1	0.518465002581252	1	2	mix	stay_sim	1
sub-003	0	15	301	1	[3, 1, 2]	2	2	1.14693877551008	1	2	mix	1st	6
sub-003	1	15	302	0	[4, 2, 6]	2	1	1.67414675714826	0	2	mix	switch_sim	3
sub-003	2	15	303	1	[3, 5, 4]	2	2	0.726595301333418	1	2	mix	switch_pref	2
sub-003	3	15	304	1	[6, 2, 1]	2	2	1.17281783179578	1	2	mix	stay_sim	1
sub-003	4	15	305	0	[3, 1, 5]	2	2	1.43834010288037	1	2	mix	switch_sim	3
sub-003	5	15	306	1	[6, 4, 5]	2	2	0.838207925657116	1	2	mix	switch_pref	2
sub-003	6	15	307	0	[5, 1, 3]	2	1	1.1825488744721	0	2	mix	switch_sim	3
sub-003	7	15	308	1	[5, 3, 4]	2	2	1.98635526749558	1	2	mix	switch_pref	2
sub-003	8	15	309	0	[4, 6, 2]	2	2	1.94464635595159	1	2	mix	switch_sim	3
sub-003	9	15	310	1	[4, 5, 6]	1	1	1.45246253942014	1	2	mix	switch_pref	2
sub-003	10	15	311	0	[5, 3, 1]	2	2	1.60258725251788	1	2	mix	switch_sim	3
sub-003	11	15	312	0	[3, 5, 1]	2	1	1.71838880629957	0	2	mix	stay_pref	0
sub-003	12	15	313	1	[4, 2, 3]	2	2	0.778550280215768	1	2	mix	switch_pref	2
sub-003	13	15	314	0	[4, 2, 6]	2	1	1.38677699058917	0	2	mix	switch_sim	3
sub-003	14	15	315	1	[4, 6, 5]	2	2	2.27622707113915	1	2	mix	switch_pref	2
sub-003	15	15	316	0	[1, 5, 3]	2	2	2.11866000286091	1	2	mix	switch_sim	3
sub-003	16	15	317	0	[2, 4, 6]	2	2	1.15456928885578	1	2	mix	stay_pref	0
sub-003	17	15	318	0	[5, 1, 3]	2	2	1.27071636944947	1	2	mix	stay_pref	0
sub-003	18	15	319	0	[4, 2, 6]	2	2	1.9587653714334	1	2	mix	stay_pref	0
sub-003	19	15	320	1	[3, 4, 5]	1	1	0.931068800577123	1	2	mix	switch_pref	2
sub-003	0	16	321	0	[4, 6, 2]	2	2	1.72896391717313	1	2	mix	1st	6
sub-003	1	16	322	0	[5, 1, 3]	2	2	1.22293819082006	1	2	mix	stay_pref	0
sub-003	2	16	323	1	[5, 6, 1]	1	1	1.50657589460661	1	2	mix	switch_pref	2
sub-003	3	16	324	1	[4, 6, 5]	2	2	0.725127978652381	1	2	mix	stay_sim	1
sub-003	4	16	325	1	[3, 4, 5]	1	1	0.720814647102543	1	2	mix	stay_sim	1
sub-003	5	16	326	1	[3, 5, 4]	2	2	0.798778371452499	1	2	mix	stay_sim	1
sub-003	6	16	327	1	[4, 5, 6]	1	1	1.06672990439711	1	2	mix	stay_sim	1
sub-003	7	16	328	0	[3, 5, 1]	2	1	1.46515870596932	0	2	mix	switch_sim	3
sub-003	8	16	329	1	[1, 2, 3]	1	1	1.66835677276094	1	2	mix	switch_pref	2
sub-003	9	16	330	0	[3, 1, 5]	2	2	1.03500519378713	1	2	mix	switch_sim	3
sub-003	10	16	331	0	[3, 1, 5]	2	2	2.02694207216564	1	2	mix	stay_pref	0
sub-003	11	16	332	0	[6, 4, 2]	2	2	0.772932592726193	1	2	mix	stay_pref	0
sub-003	12	16	333	0	[2, 6, 4]	2	1	0.671107925035358	0	2	mix	stay_pref	0
sub-003	13	16	334	0	[2, 4, 6]	2	2	0.91880679733049	1	2	mix	stay_pref	0
sub-003	14	16	335	0	[1, 3, 5]	2	1	1.69535544787868	0	2	mix	stay_pref	0
sub-003	15	16	336	0	[1, 3, 5]	2	2	0.623103645603351	1	2	mix	stay_pref	0
sub-003	16	16	337	1	[1, 3, 2]	2	2	1.04726813005027	1	2	mix	switch_pref	2
sub-003	17	16	338	0	[4, 6, 2]	2	2	1.33661091379599	1	2	mix	switch_sim	3
sub-003	18	16	339	1	[4, 6, 5]	2	2	0.80718888591673	1	2	mix	switch_pref	2
sub-003	19	16	340	0	[4, 2, 6]	2	1	2.24894258221457	0	2	mix	switch_sim	3
sub-004	0	0	1	0	[4, 6, 2]	2	2	0.798265840224758	1	0	pure_pref	pure_pref	4
sub-004	1	0	2	0	[1, 5, 3]	2	1	1.45869148066049	0	0	pure_pref	pure_pref	4
sub-004	2	0	3	0	[6, 2, 4]	2	1	1.48669181654441	0	0	pure_pref	pure_pref	4
sub-004	3	0	4	0	[1, 5, 3]	2	1	1.70298595193754	0	0	pure_pref	pure_pref	4
sub-004	4	0	5	0	[4, 6, 2]	2	2	1.59738569815772	1	0	pure_pref	pure_pref	4
sub-004	5	0	6	0	[1, 5, 3]	2	1	1.67930639829046	0	0	pure_pref	pure_pref	4
sub-004	6	0	7	0	[6, 2, 4]	2	1	2.07530874948316	0	0	pure_pref	pure_pref	4
sub-004	7	0	8	0	[5, 3, 1]	2	1	1.01170744450883	0	0	pure_pref	pure_pref	4
sub-004	8	0	9	0	[4, 6, 2]	2	2	1.95540851965097	1	0	pure_pref	pure_pref	4
sub-004	9	0	10	0	[1, 5, 3]	2	1	1.97540609381758	0	0	pure_pref	pure_pref	4
sub-004	10	0	11	0	[3, 5, 1]	2	1	1.10364092691725	0	0	pure_pref	pure_pref	4
sub-004	11	0	12	0	[2, 6, 4]	2	0	0	nan	0	pure_pref	pure_pref	4
sub-004	12	0	13	0	[1, 3, 5]	2	2	2.37159007150012	1	0	pure_pref	pure_pref	4
sub-004	13	0	14	0	[2, 6, 4]	2	2	2.13174451621762	1	0	pure_pref	pure_pref	4
sub-004	14	0	15	0	[5, 1, 3]	2	2	1.30351714722019	1	0	pure_pref	pure_pref	4
sub-004	15	0	16	0	[1, 5, 3]	2	1	1.83148887071229	0	0	pure_pref	pure_pref	4
sub-004	16	0	17	0	[2, 4, 6]	2	1	1.28362127144737	0	0	pure_pref	pure_pref	4
sub-004	17	0	18	0	[6, 4, 2]	2	1	1.83557080167566	0	0	pure_pref	pure_pref	4
sub-004	18	0	19	0	[1, 3, 5]	2	2	1.3717477506616	1	0	pure_pref	pure_pref	4
sub-004	19	0	20	0	[5, 3, 1]	2	1	0.823712209094538	0	0	pure_pref	pure_pref	4
sub-004	0	1	21	0	[2, 4, 6]	2	1	1.81979355536987	0	0	pure_pref	pure_pref	4
sub-004	1	1	22	0	[5, 3, 1]	2	1	1.51993910536521	0	0	pure_pref	pure_pref	4
sub-004	2	1	23	0	[2, 4, 6]	2	0	0	nan	0	pure_pref	pure_pref	4
sub-004	3	1	24	0	[5, 3, 1]	2	1	0.832252075175802	0	0	pure_pref	pure_pref	4
sub-004	4	1	25	0	[6, 2, 4]	2	2	1.85993674173278	1	0	pure_pref	pure_pref	4
sub-004	5	1	26	0	[4, 2, 6]	2	1	2.17989668438395	0	0	pure_pref	pure_pref	4
sub-004	6	1	27	0	[3, 5, 1]	2	1	1.36021664556984	0	0	pure_pref	pure_pref	4
sub-004	7	1	28	0	[2, 6, 4]	2	2	1.11594518860875	1	0	pure_pref	pure_pref	4
sub-004	8	1	29	0	[1, 3, 5]	2	2	1.13998550720135	1	0	pure_pref	pure_pref	4
sub-004	9	1	30	0	[5, 3, 1]	2	2	1.23996031585602	1	0	pure_pref	pure_pref	4
sub-004	10	1	31	0	[2, 4, 6]	2	1	2.09214900836332	0	0	pure_pref	pure_pref	4
sub-004	11	1	32	0	[4, 2, 6]	2	1	2.00397245746262	0	0	pure_pref	pure_pref	4
sub-004	12	1	33	0	[5, 1, 3]	2	2	0.856121652427646	1	0	pure_pref	pure_pref	4
sub-004	13	1	34	0	[6, 4, 2]	2	0	0	nan	0	pure_pref	pure_pref	4
sub-004	14	1	35	0	[2, 4, 6]	2	1	1.96803467075551	0	0	pure_pref	pure_pref	4
sub-004	15	1	36	0	[3, 1, 5]	2	2	1.57206777404917	1	0	pure_pref	pure_pref	4
sub-004	16	1	37	0	[4, 6, 2]	2	2	1.70412267252186	1	0	pure_pref	pure_pref	4
sub-004	17	1	38	0	[2, 6, 4]	2	2	1.38039180317173	1	0	pure_pref	pure_pref	4
sub-004	18	1	39	0	[5, 1, 3]	2	2	0.868290627264287	1	0	pure_pref	pure_pref	4
sub-004	19	1	40	0	[3, 1, 5]	2	0	0	nan	0	pure_pref	pure_pref	4
sub-004	0	2	41	0	[4, 6, 2]	2	2	1.54441265289779	1	0	pure_pref	pure_pref	4
sub-004	1	2	42	0	[6, 4, 2]	2	1	1.99228585023911	0	0	pure_pref	pure_pref	4
sub-004	2	2	43	0	[1, 3, 5]	2	2	2.33625034599208	1	0	pure_pref	pure_pref	4
sub-004	3	2	44	0	[2, 6, 4]	2	2	1.96429950954598	1	0	pure_pref	pure_pref	4
sub-004	4	2	45	0	[4, 6, 2]	2	2	1.70433011236582	1	0	pure_pref	pure_pref	4
sub-004	5	2	46	0	[1, 5, 3]	2	0	0	nan	0	pure_pref	pure_pref	4
sub-004	6	2	47	0	[6, 2, 4]	2	2	1.29640696773913	1	0	pure_pref	pure_pref	4
sub-004	7	2	48	0	[5, 3, 1]	2	1	1.04444188729804	0	0	pure_pref	pure_pref	4
sub-004	8	2	49	0	[4, 6, 2]	2	2	0.832486883395177	1	0	pure_pref	pure_pref	4
sub-004	9	2	50	0	[2, 6, 4]	2	2	1.26855560289732	1	0	pure_pref	pure_pref	4
sub-004	10	2	51	0	[6, 2, 4]	2	1	1.71251729961205	0	0	pure_pref	pure_pref	4
sub-004	11	2	52	0	[3, 1, 5]	2	2	1.2005439464574	1	0	pure_pref	pure_pref	4
sub-004	12	2	53	0	[6, 2, 4]	2	2	2.04480700630393	1	0	pure_pref	pure_pref	4
sub-004	13	2	54	0	[1, 5, 3]	2	1	2.32072781217857	0	0	pure_pref	pure_pref	4
sub-004	14	2	55	0	[2, 4, 6]	2	1	1.8046389395995	0	0	pure_pref	pure_pref	4
sub-004	15	2	56	0	[1, 5, 3]	2	1	2.42460043727215	0	0	pure_pref	pure_pref	4
sub-004	16	2	57	0	[4, 6, 2]	2	2	2.0247590494464	1	0	pure_pref	pure_pref	4
sub-004	17	2	58	0	[3, 1, 5]	2	2	1.1047185566913	1	0	pure_pref	pure_pref	4
sub-004	18	2	59	0	[1, 3, 5]	2	2	1.70881075079524	1	0	pure_pref	pure_pref	4
sub-004	19	2	60	0	[3, 1, 5]	2	2	0.932797887659035	1	0	pure_pref	pure_pref	4
sub-004	0	3	61	0	[6, 2, 4]	2	2	1.7169074358012	1	0	pure_pref	pure_pref	4
sub-004	1	3	62	0	[2, 6, 4]	2	2	0.928872702844728	1	0	pure_pref	pure_pref	4
sub-004	2	3	63	0	[4, 6, 2]	2	2	0.856909115223971	1	0	pure_pref	pure_pref	4
sub-004	3	3	64	0	[2, 6, 4]	2	2	0.728990262456591	1	0	pure_pref	pure_pref	4
sub-004	4	3	65	0	[3, 5, 1]	2	1	1.26490285781847	0	0	pure_pref	pure_pref	4
sub-004	5	3	66	0	[2, 6, 4]	2	2	0.721133361738339	1	0	pure_pref	pure_pref	4
sub-004	6	3	67	0	[1, 3, 5]	2	2	1.90089320424568	1	0	pure_pref	pure_pref	4
sub-004	7	3	68	0	[5, 3, 1]	2	2	0.673005762908815	1	0	pure_pref	pure_pref	4
sub-004	8	3	69	0	[1, 3, 5]	2	2	0.685129953131764	1	0	pure_pref	pure_pref	4
sub-004	9	3	70	0	[2, 6, 4]	2	2	0.721052500629867	1	0	pure_pref	pure_pref	4
sub-004	10	3	71	0	[3, 5, 1]	2	1	0.933067528355878	0	0	pure_pref	pure_pref	4
sub-004	11	3	72	0	[4, 2, 6]	2	2	0.945115833537784	1	0	pure_pref	pure_pref	4
sub-004	12	3	73	0	[5, 1, 3]	2	2	1.40104684035214	1	0	pure_pref	pure_pref	4
sub-004	13	3	74	0	[3, 1, 5]	2	2	0.709134506234022	1	0	pure_pref	pure_pref	4
sub-004	14	3	75	0	[4, 6, 2]	2	2	1.81315579136572	1	0	pure_pref	pure_pref	4
sub-004	15	3	76	0	[6, 4, 2]	2	1	1.81712233974758	0	0	pure_pref	pure_pref	4
sub-004	16	3	77	0	[3, 5, 1]	2	1	0.885271460071635	0	0	pure_pref	pure_pref	4
sub-004	17	3	78	0	[6, 4, 2]	2	1	1.03316393967725	0	0	pure_pref	pure_pref	4
sub-004	18	3	79	0	[1, 3, 5]	2	2	1.08524626872622	1	0	pure_pref	pure_pref	4
sub-004	19	3	80	0	[5, 3, 1]	2	2	0.925254790242889	1	0	pure_pref	pure_pref	4
sub-004	0	4	81	0	[4, 6, 2]	2	2	1.00129813179728	1	2	mix	1st	6
sub-004	1	4	82	0	[6, 4, 2]	2	1	1.1412939021393	0	2	mix	stay_pref	0
sub-004	2	4	83	0	[5, 1, 3]	2	2	1.10534491927865	1	2	mix	stay_pref	0
sub-004	3	4	84	0	[1, 5, 3]	2	1	1.71338811155101	0	2	mix	stay_pref	0
sub-004	4	4	85	0	[4, 6, 2]	2	2	1.10955996006669	1	2	mix	stay_pref	0
sub-004	5	4	86	0	[3, 1, 5]	2	2	0.825473426240478	1	2	mix	stay_pref	0
sub-004	6	4	87	0	[2, 4, 6]	2	1	1.38937142928262	0	2	mix	stay_pref	0
sub-004	7	4	88	0	[3, 1, 5]	2	2	0.757536721828274	1	2	mix	stay_pref	0
sub-004	8	4	89	0	[4, 6, 2]	2	2	0.821495681705983	1	2	mix	stay_pref	0
sub-004	9	4	90	0	[1, 5, 3]	2	1	1.53760134851427	0	2	mix	stay_pref	0
sub-004	10	4	91	1	[5, 3, 4]	2	2	1.70948376402248	1	2	mix	switch_pref	2
sub-004	11	4	92	1	[1, 3, 2]	2	2	0.857543563922263	1	2	mix	stay_sim	1
sub-004	12	4	93	1	[5, 6, 1]	1	2	1.97343743682723	0	2	mix	stay_sim	1
sub-004	13	4	94	1	[6, 5, 4]	1	2	2.26164726518391	0	2	mix	stay_sim	1
sub-004	14	4	95	1	[1, 5, 6]	2	2	1.29760744419809	1	2	mix	stay_sim	1
sub-004	15	4	96	1	[2, 4, 3]	2	2	1.70969213687931	1	2	mix	stay_sim	1
sub-004	16	4	97	1	[3, 4, 5]	1	1	1.81766099913239	1	2	mix	stay_sim	1
sub-004	17	4	98	1	[4, 3, 2]	1	1	2.02973884971971	1	2	mix	stay_sim	1
sub-004	18	4	99	1	[5, 3, 4]	2	2	1.20975029467672	1	2	mix	stay_sim	1
sub-004	19	4	100	1	[4, 6, 5]	2	2	1.2379751756398	1	2	mix	stay_sim	1
sub-004	0	5	101	1	[6, 1, 2]	1	1	2.48579394723492	1	1	pure_sim	pure_sim	5
sub-004	1	5	102	1	[5, 4, 3]	1	2	2.4297957634999	0	1	pure_sim	pure_sim	5
sub-004	2	5	103	1	[4, 2, 3]	2	2	2.365891851377	1	1	pure_sim	pure_sim	5
sub-004	3	5	104	1	[6, 2, 1]	2	2	1.95392720634209	1	1	pure_sim	pure_sim	5
sub-004	4	5	105	1	[2, 3, 4]	1	0	0	nan	1	pure_sim	pure_sim	5
sub-004	5	5	106	1	[5, 4, 3]	1	1	1.9659506311832	1	1	pure_sim	pure_sim	5
sub-004	6	5	107	1	[6, 4, 5]	2	2	1.30198918327142	1	1	pure_sim	pure_sim	5
sub-004	7	5	108	1	[1, 3, 2]	2	2	1.39797100818259	1	1	pure_sim	pure_sim	5
sub-004	8	5	109	1	[5, 6, 1]	1	1	1.88202955162524	1	1	pure_sim	pure_sim	5
sub-004	9	5	110	1	[1, 6, 5]	1	1	1.80608231038786	1	1	pure_sim	pure_sim	5
sub-004	10	5	111	1	[6, 4, 5]	2	0	0	nan	1	pure_sim	pure_sim	5
sub-004	11	5	112	1	[3, 5, 4]	2	2	1.25819729488467	1	1	pure_sim	pure_sim	5
sub-004	12	5	113	1	[4, 5, 6]	1	1	2.01817602219307	1	1	pure_sim	pure_sim	5
sub-004	13	5	114	1	[5, 4, 3]	1	1	2.14215320692074	1	1	pure_sim	pure_sim	5
sub-004	14	5	115	1	[3, 1, 2]	2	2	1.60218822600018	1	1	pure_sim	pure_sim	5
sub-004	15	5	116	1	[1, 3, 2]	2	2	2.05023776275993	1	1	pure_sim	pure_sim	5
sub-004	16	5	117	1	[3, 4, 5]	1	1	2.1982997396899	1	1	pure_sim	pure_sim	5
sub-004	17	5	118	1	[5, 4, 3]	1	1	1.63030581049225	1	1	pure_sim	pure_sim	5
sub-004	18	5	119	1	[2, 6, 1]	2	2	0.718454682013544	1	1	pure_sim	pure_sim	5
sub-004	19	5	120	1	[3, 5, 4]	2	2	1.11438519122021	1	1	pure_sim	pure_sim	5
sub-004	0	6	121	1	[5, 6, 1]	1	2	2.30227655121143	0	1	pure_sim	pure_sim	5
sub-004	1	6	122	1	[4, 3, 2]	1	1	1.59844280165089	1	1	pure_sim	pure_sim	5
sub-004	2	6	123	1	[5, 3, 4]	2	0	0	nan	1	pure_sim	pure_sim	5
sub-004	3	6	124	1	[6, 2, 1]	2	2	1.36640407540017	1	1	pure_sim	pure_sim	5
sub-004	4	6	125	1	[4, 5, 6]	1	2	1.97047916426891	0	1	pure_sim	pure_sim	5
sub-004	5	6	126	1	[5, 4, 3]	1	1	1.95043462845933	1	1	pure_sim	pure_sim	5
sub-004	6	6	127	1	[6, 4, 5]	2	2	2.42649196520506	1	1	pure_sim	pure_sim	5
sub-004	7	6	128	1	[4, 6, 5]	2	2	1.51056947990764	1	1	pure_sim	pure_sim	5
sub-004	8	6	129	1	[2, 3, 4]	1	1	1.47868376775477	1	1	pure_sim	pure_sim	5
sub-004	9	6	130	1	[3, 2, 1]	1	1	1.6626200865212	1	1	pure_sim	pure_sim	5
sub-004	10	6	131	1	[6, 4, 5]	2	2	2.13460886548728	1	1	pure_sim	pure_sim	5
sub-004	11	6	132	1	[1, 3, 2]	2	2	1.85068405387756	1	1	pure_sim	pure_sim	5
sub-004	12	6	133	1	[6, 1, 2]	1	1	1.82269491414718	1	1	pure_sim	pure_sim	5
sub-004	13	6	134	1	[4, 3, 2]	1	1	1.31888480091038	1	1	pure_sim	pure_sim	5
sub-004	14	6	135	1	[3, 1, 2]	2	2	1.18276010064164	1	1	pure_sim	pure_sim	5
sub-004	15	6	136	1	[2, 4, 3]	2	2	1.69879485847741	1	1	pure_sim	pure_sim	5
sub-004	16	6	137	1	[4, 5, 6]	1	1	0.886855404787639	1	1	pure_sim	pure_sim	5
sub-004	17	6	138	1	[3, 2, 1]	1	1	1.83081430246421	1	1	pure_sim	pure_sim	5
sub-004	18	6	139	1	[5, 3, 4]	2	2	1.85487919039406	1	1	pure_sim	pure_sim	5
sub-004	19	6	140	1	[3, 5, 4]	2	2	1.98284376078846	1	1	pure_sim	pure_sim	5
sub-004	0	7	141	1	[5, 6, 1]	1	1	2.35083426893743	1	1	pure_sim	pure_sim	5
sub-004	1	7	142	1	[3, 2, 1]	1	1	2.03895701610054	1	1	pure_sim	pure_sim	5
sub-004	2	7	143	1	[2, 6, 1]	2	2	2.30294178933218	1	1	pure_sim	pure_sim	5
sub-004	3	7	144	1	[4, 6, 5]	2	0	0	nan	1	pure_sim	pure_sim	5
sub-004	4	7	145	1	[3, 4, 5]	1	1	1.19109905796813	1	1	pure_sim	pure_sim	5
sub-004	5	7	146	1	[4, 3, 2]	1	1	1.51508090775951	1	1	pure_sim	pure_sim	5
sub-004	6	7	147	1	[6, 4, 5]	2	2	1.13911749430099	1	1	pure_sim	pure_sim	5
sub-004	7	7	148	1	[4, 6, 5]	2	1	2.3510849383747	0	1	pure_sim	pure_sim	5
sub-004	8	7	149	1	[2, 3, 4]	1	1	0.991194536276453	1	1	pure_sim	pure_sim	5
sub-004	9	7	150	1	[5, 4, 3]	1	1	1.51520530946436	1	1	pure_sim	pure_sim	5
sub-004	10	7	151	1	[2, 6, 1]	2	2	2.25516469230752	1	1	pure_sim	pure_sim	5
sub-004	11	7	152	1	[6, 2, 1]	2	0	0	nan	1	pure_sim	pure_sim	5
sub-004	12	7	153	1	[3, 4, 5]	1	1	1.43130351217133	1	1	pure_sim	pure_sim	5
sub-004	13	7	154	1	[4, 3, 2]	1	2	1.87933127863198	0	1	pure_sim	pure_sim	5
sub-004	14	7	155	1	[6, 4, 5]	2	2	1.40331779348708	1	1	pure_sim	pure_sim	5
sub-004	15	7	156	1	[3, 5, 4]	2	2	2.46331144900068	1	1	pure_sim	pure_sim	5
sub-004	16	7	157	1	[1, 2, 3]	1	1	1.63136602402756	1	1	pure_sim	pure_sim	5
sub-004	17	7	158	1	[3, 2, 1]	1	1	2.35178874102348	1	1	pure_sim	pure_sim	5
sub-004	18	7	159	1	[5, 3, 4]	2	2	1.95137697137852	1	1	pure_sim	pure_sim	5
sub-004	19	7	160	1	[1, 3, 2]	2	2	2.25543371099684	1	1	pure_sim	pure_sim	5
sub-004	0	8	161	1	[2, 3, 4]	1	1	1.23947235016567	1	1	pure_sim	pure_sim	5
sub-004	1	8	162	1	[3, 2, 1]	1	1	1.32754315961665	1	1	pure_sim	pure_sim	5
sub-004	2	8	163	1	[6, 4, 5]	2	2	1.63154143043266	1	1	pure_sim	pure_sim	5
sub-004	3	8	164	1	[5, 1, 6]	2	0	0	nan	1	pure_sim	pure_sim	5
sub-004	4	8	165	1	[4, 5, 6]	1	1	2.31961503892217	1	1	pure_sim	pure_sim	5
sub-004	5	8	166	1	[3, 2, 1]	1	0	0	nan	1	pure_sim	pure_sim	5
sub-004	6	8	167	1	[6, 4, 5]	2	2	1.57571336603087	1	1	pure_sim	pure_sim	5
sub-004	7	8	168	1	[1, 3, 2]	2	2	1.4075997001919	1	1	pure_sim	pure_sim	5
sub-004	8	8	169	1	[3, 4, 5]	1	1	1.6679432355013	1	1	pure_sim	pure_sim	5
sub-004	9	8	170	1	[6, 5, 4]	1	1	0.843783491271097	1	1	pure_sim	pure_sim	5
sub-004	10	8	171	1	[1, 5, 6]	2	2	1.90780589601854	1	1	pure_sim	pure_sim	5
sub-004	11	8	172	1	[2, 4, 3]	2	2	2.35180024818055	1	1	pure_sim	pure_sim	5
sub-004	12	8	173	1	[5, 6, 1]	1	1	1.16030279375173	1	1	pure_sim	pure_sim	5
sub-004	13	8	174	1	[4, 3, 2]	1	1	2.35978341663122	1	1	pure_sim	pure_sim	5
sub-004	14	8	175	1	[1, 5, 6]	2	1	1.33201073586679	0	1	pure_sim	pure_sim	5
sub-004	15	8	176	1	[2, 4, 3]	2	0	0	nan	1	pure_sim	pure_sim	5
sub-004	16	8	177	1	[5, 6, 1]	1	0	0	nan	1	pure_sim	pure_sim	5
sub-004	17	8	178	1	[3, 2, 1]	1	1	2.1959292651909	1	1	pure_sim	pure_sim	5
sub-004	18	8	179	1	[6, 4, 5]	2	2	2.1119997885171	1	1	pure_sim	pure_sim	5
sub-004	19	8	180	1	[3, 5, 4]	2	0	0	nan	1	pure_sim	pure_sim	5
sub-004	0	9	181	0	[1, 5, 3]	2	1	1.79607419317745	0	2	mix	1st	6
sub-004	1	9	182	0	[1, 5, 3]	2	1	1.24814874711865	0	2	mix	stay_pref	0
sub-004	2	9	183	1	[3, 2, 1]	1	1	0.900166076276946	1	2	mix	switch_pref	2
sub-004	3	9	184	0	[4, 6, 2]	2	0	0	nan	2	mix	switch_sim	3
sub-004	4	9	185	1	[3, 4, 5]	1	0	0	nan	2	mix	switch_pref	2
sub-004	5	9	186	1	[4, 5, 6]	1	1	2.20818096716084	1	2	mix	stay_sim	1
sub-004	6	9	187	0	[5, 3, 1]	2	2	1.60831438798959	1	2	mix	switch_sim	3
sub-004	7	9	188	1	[4, 2, 3]	2	2	2.06423295463355	1	2	mix	switch_pref	2
sub-004	8	9	189	1	[5, 3, 4]	2	2	2.16027387035501	1	2	mix	stay_sim	1
sub-004	9	9	190	1	[6, 1, 2]	1	1	1.57249384989063	1	2	mix	stay_sim	1
sub-004	10	9	191	1	[1, 5, 6]	2	1	2.44033911904989	0	2	mix	stay_sim	1
sub-004	11	9	192	0	[4, 6, 2]	2	2	2.09237168741583	1	2	mix	switch_sim	3
sub-004	12	9	193	0	[6, 2, 4]	2	0	0	nan	2	mix	stay_pref	0
sub-004	13	9	194	0	[2, 6, 4]	2	2	1.50853302398718	1	2	mix	stay_pref	0
sub-004	14	9	195	1	[2, 3, 4]	1	1	1.32448256665612	1	2	mix	switch_pref	2
sub-004	15	9	196	1	[4, 2, 3]	2	1	2.20845744995131	0	2	mix	stay_sim	1
sub-004	16	9	197	1	[1, 2, 3]	1	1	2.28047732934465	1	2	mix	stay_sim	1
sub-004	17	9	198	0	[2, 6, 4]	2	2	1.97705877047611	1	2	mix	switch_sim	3
sub-004	18	9	199	0	[3, 5, 1]	2	1	1.6247148868415	0	2	mix	stay_pref	0
sub-004	19	9	200	1	[6, 4, 5]	2	2	1.52860586118641	1	2	mix	switch_pref	2
sub-004	0	10	201	1	[2, 3, 4]	1	1	1.72066001324856	1	2	mix	1st	6
sub-004	1	10	202	0	[6, 2, 4]	2	2	1.2487384112037	1	2	mix	switch_sim	3
sub-004	2	10	203	0	[5, 3, 1]	2	1	2.17287327509257	0	2	mix	stay_pref	0
sub-004	3	10	204	1	[4, 2, 3]	2	0	0	nan	2	mix	switch_pref	2
sub-004	4	10	205	1	[2, 4, 3]	2	2	1.02084195074349	1	2	mix	stay_sim	1
sub-004	5	10	206	1	[3, 1, 2]	2	2	1.24885192775946	1	2	mix	stay_sim	1
sub-004	6	10	207	1	[5, 6, 1]	1	1	2.09281331347029	1	2	mix	stay_sim	1
sub-004	7	10	208	0	[5, 3, 1]	2	0	0	nan	2	mix	switch_sim	3
sub-004	8	10	209	0	[2, 6, 4]	2	2	2.10085121866996	1	2	mix	stay_pref	0
sub-004	9	10	210	0	[2, 4, 6]	2	1	1.76892258792941	0	2	mix	stay_pref	0
sub-004	10	10	211	1	[5, 1, 6]	2	2	1.46095185964987	1	2	mix	switch_pref	2
sub-004	11	10	212	0	[6, 4, 2]	2	1	2.11693200513764	0	2	mix	switch_sim	3
sub-004	12	10	213	0	[2, 6, 4]	2	2	1.81302672459697	1	2	mix	stay_pref	0
sub-004	13	10	214	1	[2, 6, 1]	2	0	0	nan	2	mix	switch_pref	2
sub-004	14	10	215	0	[4, 6, 2]	2	2	1.75308593980844	1	2	mix	switch_sim	3
sub-004	15	10	216	0	[3, 1, 5]	2	2	1.55723598070563	1	2	mix	stay_pref	0
sub-004	16	10	217	1	[2, 1, 6]	1	1	2.1330538441689	1	2	mix	switch_pref	2
sub-004	17	10	218	1	[4, 3, 2]	1	1	2.36910172638454	1	2	mix	stay_sim	1
sub-004	18	10	219	1	[1, 5, 6]	2	2	1.91696870364103	1	2	mix	stay_sim	1
sub-004	19	10	220	1	[6, 2, 1]	2	2	2.32116073011366	1	2	mix	stay_sim	1
sub-004	0	11	221	1	[4, 3, 2]	1	1	1.16926282659279	1	2	mix	1st	6
sub-004	1	11	222	0	[6, 4, 2]	2	1	2.04523836921817	0	2	mix	switch_sim	3
sub-004	2	11	223	0	[4, 2, 6]	2	2	2.38924236251205	1	2	mix	stay_pref	0
sub-004	3	11	224	1	[2, 4, 3]	2	2	2.31727815288377	1	2	mix	switch_pref	2
sub-004	4	11	225	1	[2, 6, 1]	2	2	1.92930251073722	1	2	mix	stay_sim	1
sub-004	5	11	226	1	[1, 2, 3]	1	1	1.20140480625923	1	2	mix	stay_sim	1
sub-004	6	11	227	0	[6, 4, 2]	2	1	2.00938113261509	0	2	mix	switch_sim	3
sub-004	7	11	228	0	[6, 2, 4]	2	2	2.13736280824378	1	2	mix	stay_pref	0
sub-004	8	11	229	1	[2, 1, 6]	1	0	0	nan	2	mix	switch_pref	2
sub-004	9	11	230	1	[2, 1, 6]	1	1	1.97350057069252	1	2	mix	stay_sim	1
sub-004	10	11	231	1	[1, 3, 2]	2	2	2.24147459561664	1	2	mix	stay_sim	1
sub-004	11	11	232	0	[1, 3, 5]	2	2	1.69359175714271	1	2	mix	switch_sim	3
sub-004	12	11	233	1	[1, 3, 2]	2	2	1.8416562221073	1	2	mix	switch_pref	2
sub-004	13	11	234	1	[5, 1, 6]	2	0	0	nan	2	mix	stay_sim	1
sub-004	14	11	235	1	[1, 6, 5]	1	1	2.32565660775163	1	2	mix	stay_sim	1
sub-004	15	11	236	0	[1, 3, 5]	2	2	2.22567060294477	1	2	mix	switch_sim	3
sub-004	16	11	237	1	[6, 1, 2]	1	0	0	nan	2	mix	switch_pref	2
sub-004	17	11	238	1	[2, 4, 3]	2	2	2.0657416363174	1	2	mix	stay_sim	1
sub-004	18	11	239	0	[6, 2, 4]	2	2	2.27372169472437	1	2	mix	switch_sim	3
sub-004	19	11	240	0	[2, 4, 6]	2	0	0	nan	2	mix	stay_pref	0
sub-004	0	12	241	1	[6, 1, 2]	1	1	2.09781861609281	1	2	mix	1st	6
sub-004	1	12	242	0	[4, 2, 6]	2	2	1.50186882462185	1	2	mix	switch_sim	3
sub-004	2	12	243	1	[1, 3, 2]	2	2	2.20581546873018	1	2	mix	switch_pref	2
sub-004	3	12	244	0	[4, 2, 6]	2	2	2.33786881218111	1	2	mix	switch_sim	3
sub-004	4	12	245	0	[2, 6, 4]	2	0	0	nan	2	mix	stay_pref	0
sub-004	5	12	246	1	[1, 6, 5]	1	1	2.12596481297714	1	2	mix	switch_pref	2
sub-004	6	12	247	1	[4, 6, 5]	2	2	2.25399562727944	1	2	mix	stay_sim	1
sub-004	7	12	248	0	[5, 1, 3]	2	1	1.97417451693218	0	2	mix	switch_sim	3
sub-004	8	12	249	0	[1, 5, 3]	2	1	1.59808639076437	0	2	mix	stay_pref	0
sub-004	9	12	250	1	[4, 6, 5]	2	2	1.85013699737829	1	2	mix	switch_pref	2
sub-004	10	12	251	1	[5, 3, 4]	2	2	2.48601133921602	1	2	mix	stay_sim	1
sub-004	11	12	252	0	[1, 5, 3]	2	0	0	nan	2	mix	switch_sim	3
sub-004	12	12	253	0	[4, 2, 6]	2	2	1.46618917145315	1	2	mix	stay_pref	0
sub-004	13	12	254	0	[6, 2, 4]	2	2	0.974286789471989	1	2	mix	stay_pref	0
sub-004	14	12	255	0	[1, 3, 5]	2	2	1.25427428710009	1	2	mix	stay_pref	0
sub-004	15	12	256	1	[5, 1, 6]	2	2	1.6822391684982	1	2	mix	switch_pref	2
sub-004	16	12	257	1	[4, 5, 6]	1	1	1.85032639897509	1	2	mix	stay_sim	1
sub-004	17	12	258	0	[3, 5, 1]	2	1	1.71031849946667	0	2	mix	switch_sim	3
sub-004	18	12	259	0	[5, 1, 3]	2	2	1.84234634056793	1	2	mix	stay_pref	0
sub-004	19	12	260	1	[6, 4, 5]	2	0	0	nan	2	mix	switch_pref	2
sub-004	0	13	261	1	[5, 1, 6]	2	2	2.29430022485576	1	2	mix	1st	6
sub-004	1	13	262	0	[5, 1, 3]	2	2	2.22236835967033	1	2	mix	switch_sim	3
sub-004	2	13	263	0	[6, 2, 4]	2	2	1.59872768155674	1	2	mix	stay_pref	0
sub-004	3	13	264	1	[6, 5, 4]	1	1	2.15852291634928	1	2	mix	switch_pref	2
sub-004	4	13	265	0	[4, 2, 6]	2	2	1.37456700431358	1	2	mix	switch_sim	3
sub-004	5	13	266	1	[6, 4, 5]	2	2	2.23851103598645	1	2	mix	switch_pref	2
sub-004	6	13	267	0	[4, 2, 6]	2	1	2.25852073931946	0	2	mix	switch_sim	3
sub-004	7	13	268	1	[1, 6, 5]	1	0	0	nan	2	mix	switch_pref	2
sub-004	8	13	269	0	[4, 2, 6]	2	2	1.82264328743986	1	2	mix	switch_sim	3
sub-004	9	13	270	0	[2, 4, 6]	2	0	0	nan	2	mix	stay_pref	0
sub-004	10	13	271	1	[5, 3, 4]	2	2	2.37471037727937	1	2	mix	switch_pref	2
sub-004	11	13	272	0	[3, 1, 5]	2	2	1.83069332180548	1	2	mix	switch_sim	3
sub-004	12	13	273	0	[5, 1, 3]	2	2	1.29478663552436	1	2	mix	stay_pref	0
sub-004	13	13	274	0	[5, 3, 1]	2	1	1.6548110804606	0	2	mix	stay_pref	0
sub-004	14	13	275	0	[1, 3, 5]	2	2	1.86277838769183	1	2	mix	stay_pref	0
sub-004	15	13	276	0	[4, 6, 2]	2	2	1.76679127570878	1	2	mix	stay_pref	0
sub-004	16	13	277	0	[6, 4, 2]	2	0	0	nan	2	mix	stay_pref	0
sub-004	17	13	278	1	[3, 4, 5]	1	1	2.03894239889996	1	2	mix	switch_pref	2
sub-004	18	13	279	0	[5, 1, 3]	2	1	2.4308886324834	0	2	mix	switch_sim	3
sub-004	19	13	280	1	[6, 4, 5]	2	0	0	nan	2	mix	switch_pref	2
sub-004	0	14	281	0	[1, 3, 5]	2	2	2.47900037009458	1	2	mix	1st	6
sub-004	1	14	282	1	[1, 6, 5]	1	1	1.67906505898191	1	2	mix	switch_pref	2
sub-004	2	14	283	0	[4, 2, 6]	2	1	1.28320794678075	0	2	mix	switch_sim	3
sub-004	3	14	284	0	[6, 2, 4]	2	2	2.03901890594898	1	2	mix	stay_pref	0
sub-004	4	14	285	0	[5, 1, 3]	2	2	1.7190965948148	1	2	mix	stay_pref	0
sub-004	5	14	286	1	[3, 2, 1]	1	0	0	nan	2	mix	switch_pref	2
sub-004	6	14	287	1	[1, 2, 3]	1	1	1.29123434482335	1	2	mix	stay_sim	1
sub-004	7	14	288	1	[1, 2, 3]	1	1	0.911215746767994	1	2	mix	stay_sim	1
sub-004	8	14	289	0	[5, 1, 3]	2	2	1.83118253151224	1	2	mix	switch_sim	3
sub-004	9	14	290	1	[6, 5, 4]	1	1	1.4272343323828	1	2	mix	switch_pref	2
sub-004	10	14	291	0	[1, 3, 5]	2	2	2.45115273730426	1	2	mix	switch_sim	3
sub-004	11	14	292	1	[2, 1, 6]	1	0	0	nan	2	mix	switch_pref	2
sub-004	12	14	293	1	[6, 1, 2]	1	1	2.17134779917797	1	2	mix	stay_sim	1
sub-004	13	14	294	1	[3, 1, 2]	2	2	1.69531907482451	1	2	mix	stay_sim	1
sub-004	14	14	295	0	[6, 4, 2]	2	1	1.75946992433273	0	2	mix	switch_sim	3
sub-004	15	14	296	0	[4, 6, 2]	2	1	1.49959631646561	0	2	mix	stay_pref	0
sub-004	16	14	297	1	[3, 5, 4]	2	0	0	nan	2	mix	switch_pref	2
sub-004	17	14	298	1	[5, 6, 1]	1	1	2.23540379238602	1	2	mix	stay_sim	1
sub-004	18	14	299	0	[2, 4, 6]	2	1	2.04745427459875	0	2	mix	switch_sim	3
sub-004	19	14	300	0	[6, 4, 2]	2	0	0	nan	2	mix	stay_pref	0
sub-004	0	15	301	1	[2, 1, 6]	1	1	1.67559362938846	1	2	mix	1st	6
sub-004	1	15	302	0	[6, 4, 2]	2	1	2.44750776733144	0	2	mix	switch_sim	3
sub-004	2	15	303	0	[6, 4, 2]	2	1	1.29960720161489	0	2	mix	stay_pref	0
sub-004	3	15	304	0	[5, 1, 3]	2	2	1.21562205517785	1	2	mix	stay_pref	0
sub-004	4	15	305	1	[1, 6, 5]	1	1	1.61964178528888	1	2	mix	switch_pref	2
sub-004	5	15	306	1	[1, 3, 2]	2	2	1.58767645604439	1	2	mix	stay_sim	1
sub-004	6	15	307	0	[5, 1, 3]	2	2	1.33173580809762	1	2	mix	switch_sim	3
sub-004	7	15	308	1	[6, 1, 2]	1	1	1.77174775066123	1	2	mix	switch_pref	2
sub-004	8	15	309	1	[2, 4, 3]	2	2	1.27575721763151	1	2	mix	stay_sim	1
sub-004	9	15	310	1	[5, 6, 1]	1	1	1.86780172856197	1	2	mix	stay_sim	1
sub-004	10	15	311	1	[4, 3, 2]	1	1	1.98383462037236	1	2	mix	stay_sim	1
sub-004	11	15	312	0	[5, 3, 1]	2	0	0	nan	2	mix	switch_sim	3
sub-004	12	15	313	1	[3, 1, 2]	2	2	1.66388618487963	1	2	mix	switch_pref	2
sub-004	13	15	314	1	[4, 6, 5]	2	2	2.08783911127375	1	2	mix	stay_sim	1
sub-004	14	15	315	0	[1, 3, 5]	2	2	2.28389246716597	1	2	mix	switch_sim	3
sub-004	15	15	316	0	[6, 2, 4]	2	2	2.33589611213574	1	2	mix	stay_pref	0
sub-004	16	15	317	0	[3, 1, 5]	2	2	2.03594214076656	1	2	mix	stay_pref	0
sub-004	17	15	318	0	[4, 6, 2]	2	2	2.48796911105637	1	2	mix	stay_pref	0
sub-004	18	15	319	1	[6, 4, 5]	2	0	0	nan	2	mix	switch_pref	2
sub-004	19	15	320	0	[1, 5, 3]	2	2	2.02006226305366	1	2	mix	switch_sim	3
sub-004	0	16	321	1	[6, 5, 4]	1	2	2.22010549264633	0	2	mix	1st	6
sub-004	1	16	322	1	[3, 2, 1]	1	1	2.40811907731313	1	2	mix	stay_sim	1
sub-004	2	16	323	1	[2, 6, 1]	2	2	2.49611058067603	1	2	mix	stay_sim	1
sub-004	3	16	324	1	[6, 2, 1]	2	2	1.99214652032879	1	2	mix	stay_sim	1
sub-004	4	16	325	1	[4, 5, 6]	1	1	2.38418761021239	1	2	mix	stay_sim	1
sub-004	5	16	326	1	[5, 4, 3]	1	0	0	nan	2	mix	stay_sim	1
sub-004	6	16	327	1	[2, 4, 3]	2	2	1.16826916796981	1	2	mix	stay_sim	1
sub-004	7	16	328	0	[3, 5, 1]	2	1	2.11629226936657	0	2	mix	switch_sim	3
sub-004	8	16	329	1	[6, 4, 5]	2	2	1.99631553248582	1	2	mix	switch_pref	2
sub-004	9	16	330	0	[4, 2, 6]	2	0	0	nan	2	mix	switch_sim	3
sub-004	10	16	331	0	[6, 4, 2]	2	1	2.43237181181757	0	2	mix	stay_pref	0
sub-004	11	16	332	0	[5, 3, 1]	2	1	2.12443747103771	0	2	mix	stay_pref	0
sub-004	12	16	333	0	[3, 1, 5]	2	2	1.60449805466851	1	2	mix	stay_pref	0
sub-004	13	16	334	0	[3, 1, 5]	2	2	2.33248097431442	1	2	mix	stay_pref	0
sub-004	14	16	335	1	[4, 2, 3]	2	2	2.2484998709333	1	2	mix	switch_pref	2
sub-004	15	16	336	1	[3, 4, 5]	1	1	2.32854614836742	1	2	mix	stay_sim	1
sub-004	16	16	337	0	[3, 5, 1]	2	0	0	nan	2	mix	switch_sim	3
sub-004	17	16	338	1	[4, 2, 3]	2	2	2.06060975495984	1	2	mix	switch_pref	2
sub-004	18	16	339	0	[1, 3, 5]	2	2	2.01667418260331	1	2	mix	switch_sim	3
sub-004	19	16	340	0	[3, 5, 1]	2	1	2.17689300520306	0	2	mix	stay_pref	0
sub-005	0	0	1	0	[1, 3, 5]	2	1	1.22305101402981	0	0	pure_pref	pure_pref	4
sub-005	1	0	2	0	[2, 6, 4]	2	1	1.26767763786029	0	0	pure_pref	pure_pref	4
sub-005	2	0	3	0	[5, 1, 3]	2	1	1.26769256606531	0	0	pure_pref	pure_pref	4
sub-005	3	0	4	0	[4, 2, 6]	2	2	1.72007283719813	1	0	pure_pref	pure_pref	4
sub-005	4	0	5	0	[3, 5, 1]	2	2	1.52256211532585	1	0	pure_pref	pure_pref	4
sub-005	5	0	6	0	[6, 4, 2]	2	1	1.39602070044384	0	0	pure_pref	pure_pref	4
sub-005	6	0	7	0	[4, 6, 2]	2	1	1.33209252998859	0	0	pure_pref	pure_pref	4
sub-005	7	0	8	0	[2, 6, 4]	2	2	1.65232180233215	1	0	pure_pref	pure_pref	4
sub-005	8	0	9	0	[3, 5, 1]	2	1	1.4203763773603	0	0	pure_pref	pure_pref	4
sub-005	9	0	10	0	[6, 4, 2]	2	1	1.49209333859926	0	0	pure_pref	pure_pref	4
sub-005	10	0	11	0	[2, 4, 6]	2	2	1.97616121217015	1	0	pure_pref	pure_pref	4
sub-005	11	0	12	0	[5, 3, 1]	2	2	1.69290474872378	1	0	pure_pref	pure_pref	4
sub-005	12	0	13	0	[6, 2, 4]	2	1	1.72826655553399	0	0	pure_pref	pure_pref	4
sub-005	13	0	14	0	[4, 2, 6]	2	2	1.40846833510022	1	0	pure_pref	pure_pref	4
sub-005	14	0	15	0	[6, 2, 4]	2	2	1.02026845888031	1	0	pure_pref	pure_pref	4
sub-005	15	0	16	0	[4, 2, 6]	2	2	1.06853943067563	1	0	pure_pref	pure_pref	4
sub-005	16	0	17	0	[5, 1, 3]	2	1	1.04443597821773	0	0	pure_pref	pure_pref	4
sub-005	17	0	18	0	[1, 5, 3]	2	1	0.821254653400501	0	0	pure_pref	pure_pref	4
sub-005	18	0	19	0	[6, 2, 4]	2	2	1.11647887192521	1	0	pure_pref	pure_pref	4
sub-005	19	0	20	0	[2, 6, 4]	2	1	1.49637804434315	0	0	pure_pref	pure_pref	4
sub-005	0	1	21	0	[1, 3, 5]	2	2	1.20055296558166	1	0	pure_pref	pure_pref	4
sub-005	1	1	22	0	[3, 1, 5]	2	1	1.22854055029075	0	0	pure_pref	pure_pref	4
sub-005	2	1	23	0	[2, 4, 6]	2	2	1.73654331200942	1	0	pure_pref	pure_pref	4
sub-005	3	1	24	0	[4, 2, 6]	2	2	0.804881522925825	1	0	pure_pref	pure_pref	4
sub-005	4	1	25	0	[2, 4, 6]	2	2	1.36457630334098	1	0	pure_pref	pure_pref	4
sub-005	5	1	26	0	[6, 4, 2]	2	1	1.38511129287599	0	0	pure_pref	pure_pref	4
sub-005	6	1	27	0	[3, 5, 1]	2	2	1.90060987936158	1	0	pure_pref	pure_pref	4
sub-005	7	1	28	0	[1, 5, 3]	2	1	2.12472079592135	0	0	pure_pref	pure_pref	4
sub-005	8	1	29	0	[4, 6, 2]	2	1	1.31670590503745	0	0	pure_pref	pure_pref	4
